step,time,gps_x,gps_y,gps_z,gps_speed,gyro_x,gyro_y,gyro_z,imu_roll,imu_pitch,imu_yaw,imu_quat_x,imu_quat_y,imu_quat_z,imu_quat_w,radar_targets_count,roof_lidar_min_dist,roof_lidar_max_dist,roof_lidar_mean_dist,camera_red,camera_green,camera_blue,camera_gray,camera_recognition_objects,driver_speed,driver_steering_angle,driver_brake_intensity,collision_detected
0,0.010000,nan,nan,nan,nan,nan,nan,nan,0.000000,0.000000,0.000000,0.000000,0.000000,0.000000,0.000000,0,0.000000,0.000000,0.000000,0,0,0,0.0,0,nan,-0.000000,0.400000,0
1,0.060000,-45.000001,45.880000,0.385267,0.491104,-0.000000,-0.000461,0.000000,-0.000000,-0.000014,3.141590,0.000007,-0.000000,1.000000,0.000001,1,14.689896,99.982086,48.360149,136,127,120,127.66666666666667,10,0.701778,-0.000000,0.000000,0
2,0.110000,-45.004556,45.879996,0.349335,0.832969,0.000058,-0.060671,-0.000054,0.000002,-0.001291,3.141588,0.000646,0.000001,1.000000,0.000002,1,14.681352,99.990898,48.407925,135,126,119,126.66666666666667,10,1.370376,-0.000692,0.000000,0
3,0.160000,-45.026986,45.879916,0.310686,0.892921,0.000656,-0.110982,0.000817,0.000038,-0.006326,3.141564,0.003163,0.000019,0.999995,0.000014,1,14.694820,99.983337,48.700268,46,47,52,48.333333333333336,10,2.120684,-0.012731,0.000000,0
4,0.210000,-45.060054,45.879818,0.284813,0.831195,0.001463,-0.091922,0.004795,0.000097,-0.011425,-3.141490,0.005712,0.000049,0.999984,-0.000052,1,14.704607,99.978218,48.431189,45,44,48,45.666666666666664,10,2.834717,-0.027542,0.000000,0
5,0.260000,-45.103192,45.879777,0.275911,0.948267,0.000891,-0.049228,0.008336,0.000136,-0.014812,-3.141102,0.007406,0.000070,0.999973,-0.000246,1,14.722983,99.989532,48.523650,36,36,37,36.333333333333336,10,3.547246,-0.027941,0.000000,0
6,0.310000,-45.156878,45.879579,0.281044,1.173092,0.001758,0.001890,0.012083,0.000214,-0.015732,-3.140640,0.007866,0.000111,0.999969,-0.000477,1,14.773275,99.965080,48.466454,31,31,31,31.0,10,4.261205,-0.040055,0.000000,0
7,0.360000,-45.221118,45.879434,0.293799,1.397893,-0.000460,0.041838,0.015026,0.000206,-0.014363,-3.139865,0.007181,0.000109,0.999974,-0.000865,1,0.630494,99.983398,48.543594,29,30,30,29.666666666666668,10,4.975682,-0.033432,0.000000,0
8,0.410000,-45.295809,45.879121,0.307486,1.596533,-0.000699,0.059118,0.015297,0.000169,-0.011654,-3.139138,0.005827,0.000092,0.999982,-0.001228,1,11.053768,99.973145,48.443953,29,30,32,30.333333333333332,10,5.690642,-0.033174,0.000000,0
9,0.460000,-45.380625,45.878818,0.317417,1.782387,-0.002619,0.052983,0.013030,0.000054,-0.008798,-3.138348,0.004399,0.000034,0.999989,-0.001623,1,14.950738,99.961456,48.660000,30,31,35,32.0,10,6.405645,-0.018666,0.000000,0
10,0.510000,-45.475210,45.878421,0.321707,1.968820,-0.002511,0.031024,0.006463,-0.000079,-0.006766,-3.137885,0.003383,-0.000033,0.999993,-0.001854,1,15.020936,99.948586,48.639324,30,31,35,32.0,10,7.120226,-0.006764,0.000000,0
11,0.560000,-45.579320,45.877977,0.320916,2.158544,-0.000366,0.004500,0.002537,-0.000139,-0.006015,-3.137708,0.003008,-0.000064,0.999994,-0.001942,1,15.085216,99.979256,48.619187,31,33,37,33.666666666666664,10,7.834102,-0.002841,0.000000,0
12,0.610000,-45.692933,45.877512,0.317013,2.350631,0.001921,-0.016582,0.002472,-0.000084,-0.006459,-3.137611,0.003230,-0.000036,0.999993,-0.001990,1,15.222400,99.975639,48.602274,29,31,35,31.666666666666668,10,8.547346,-0.004264,0.000000,0
13,0.660000,-45.816189,45.876930,0.312281,2.544837,0.004780,-0.026503,0.009054,0.000101,-0.007636,-3.137385,0.003818,0.000059,0.999990,-0.002104,1,15.312412,99.915192,48.495443,28,29,32,29.666666666666668,10,9.260204,-0.016978,0.000000,0
14,0.710000,-45.949264,45.876151,0.308494,2.741436,0.006475,-0.024791,0.023355,0.000385,-0.008951,-3.136583,0.004475,0.000204,0.999987,-0.002506,1,7.998087,99.870415,48.431827,24,26,28,26.0,10,9.972928,-0.035208,0.000000,0
15,0.760000,-46.092296,45.875212,0.306530,2.941428,-0.000109,-0.015456,0.027540,0.000500,-0.009930,-3.135111,0.004964,0.000266,0.999982,-0.003242,1,15.502788,99.975800,48.362979,19,22,22,21.0,10,10.685856,-0.027822,0.000000,0
16,0.810000,-46.245430,45.873827,0.306381,3.143669,-0.001731,-0.003737,0.027181,0.000414,-0.010352,-3.133836,0.005175,0.000227,0.999979,-0.003880,1,7.994991,99.994194,48.322555,17,20,20,19.0,10,11.398842,-0.030336,0.000000,0
17,0.860000,-46.408673,45.872377,0.307486,3.346271,-0.009064,0.005690,0.012953,0.000101,-0.010239,-3.132605,0.005119,0.000074,0.999977,-0.004494,1,15.745290,99.994957,48.261243,16,19,19,18.0,10,12.111614,-0.002180,0.000000,0
18,0.910000,-46.582010,45.870608,0.309070,3.547106,-0.003126,0.010554,0.002372,-0.000200,-0.009789,-3.132514,0.004895,-0.000078,0.999978,-0.004539,1,12.630082,99.995384,48.289195,16,19,19,18.0,10,12.824941,-0.003979,0.000000,0
19,0.960000,-46.765310,45.868845,0.310490,3.745530,0.004384,0.010587,0.009331,-0.000128,-0.009243,-3.132228,0.004622,-0.000043,0.999978,-0.004682,1,15.216625,99.981750,48.272929,16,19,19,18.0,10,13.537685,-0.010852,0.000000,0
20,1.010000,-46.958477,45.866780,0.311361,3.941858,0.012097,0.007277,0.029989,0.000311,-0.008805,-3.131349,0.004402,0.000178,0.999977,-0.005123,1,16.230450,99.934486,48.244922,16,19,19,18.0,10,14.249912,-0.034105,0.000000,0
21,1.060000,-47.161388,45.864221,0.311611,4.136226,0.010628,0.002785,0.053940,0.000861,-0.008576,-3.129104,0.004285,0.000457,0.999971,-0.006246,1,16.404398,99.985947,48.228261,15,18,18,17.0,10,14.962096,-0.048380,0.000000,0
22,1.110000,-47.374030,45.860862,0.311365,4.332137,0.000313,-0.001551,0.059616,0.001059,-0.008572,-3.126083,0.004282,0.000563,0.999961,-0.007757,1,10.628109,99.984917,48.110836,26,28,27,27.0,10,15.673908,-0.044266,0.000000,0
23,1.160000,-47.596540,45.856563,0.310839,4.530495,-0.005600,-0.004278,0.054659,0.000842,-0.008744,-3.123238,0.004368,0.000461,0.999948,-0.009179,1,16.750402,99.985191,48.125265,32,35,32,33.0,10,16.385560,-0.038632,0.000000,0
24,1.210000,-47.828971,45.851461,0.310288,4.729289,-0.003780,-0.004633,0.051357,0.000566,-0.008979,-3.120626,0.004486,0.000330,0.999935,-0.010485,1,16.454166,99.980087,48.021106,35,38,34,35.666666666666664,10,17.097045,-0.035572,0.000000,0
25,1.260000,-48.071336,45.845629,0.309897,4.928379,0.000477,-0.003283,0.049482,0.000478,-0.009176,-3.118114,0.004585,0.000293,0.999921,-0.011740,1,10.285188,99.920044,47.964413,36,39,34,36.333333333333336,10,17.808273,-0.032890,0.000000,0
26,1.310000,-48.323631,45.838959,0.309738,5.126950,0.006377,-0.001125,0.055440,0.000645,-0.009279,-3.115574,0.004635,0.000383,0.999905,-0.013010,1,12.790662,99.978851,47.835279,37,41,34,37.333333333333336,10,18.519225,-0.038514,0.000000,0
27,1.360000,-48.585809,45.831336,0.309795,5.325101,0.006329,0.000756,0.063080,0.000947,-0.009278,-3.112547,0.004632,0.000541,0.999884,-0.014524,1,8.983954,99.967087,47.842458,34,38,32,34.666666666666664,10,19.229927,-0.040297,0.000000,0
28,1.410000,-48.857865,45.822474,0.309975,5.523137,0.003952,0.001781,0.070155,0.001148,-0.009210,-3.109231,0.004595,0.000648,0.999858,-0.016183,1,14.913049,99.993050,47.684809,25,28,26,26.333333333333332,10,19.940361,-0.043982,0.000000,0
29,1.460000,-49.139760,45.812215,0.310184,5.720608,0.001633,0.001957,0.078444,0.001222,-0.009118,-3.105493,0.004547,0.000693,0.999826,-0.018051,1,18.080772,99.947136,47.690629,15,19,17,17.0,10,20.650516,-0.047089,0.000000,0
30,1.510000,-49.431484,45.800434,0.310345,5.918655,-0.001526,0.001315,0.079873,0.001160,-0.009041,-3.101465,0.004508,0.000671,0.999788,-0.020065,1,10.837888,99.965157,47.635094,15,18,18,17.0,10,21.360409,-0.044244,0.000000,0
31,1.560000,-49.733087,45.787077,0.310410,6.117683,-0.002545,0.000337,0.074411,0.001002,-0.009008,-3.097607,0.004492,0.000600,0.999748,-0.021993,1,13.075086,99.892685,47.493136,15,17,18,16.666666666666668,10,22.070082,-0.039175,0.000000,0
32,1.610000,-50.044618,45.772314,0.310382,6.318042,-0.006346,-0.000619,0.054615,0.000753,-0.009022,-3.094302,0.004501,0.000483,0.999710,-0.023645,1,18.920094,99.953575,47.433035,16,18,20,18.0,10,22.779414,-0.023686,0.000000,0
33,1.660000,-50.366130,45.756301,0.310292,6.518009,-0.003533,-0.000909,0.038340,0.000479,-0.009068,-3.092172,0.004526,0.000351,0.999684,-0.024708,1,19.179794,99.974899,47.350303,16,18,21,18.333333333333332,10,23.488760,-0.018329,0.000000,0
34,1.710000,-50.697563,45.739338,0.310205,6.716915,-0.001777,-0.000645,0.029972,0.000358,-0.009107,-3.090484,0.004547,0.000295,0.999663,-0.025552,1,18.308060,99.980804,47.283019,16,18,20,18.0,10,24.197498,-0.013327,0.000000,0
35,1.760000,-51.038894,45.721354,0.310150,6.915361,0.001435,-0.000193,0.033102,0.000333,-0.009127,-3.089038,0.004557,0.000286,0.999644,-0.026275,1,17.860456,99.856117,47.203558,16,18,20,18.0,10,24.905839,-0.017753,0.000000,0
36,1.810000,-51.390090,45.702298,0.310140,7.113622,0.000290,0.000166,0.037309,0.000362,-0.009125,-3.087189,0.004556,0.000305,0.999620,-0.027199,1,18.835482,99.991890,47.081657,16,18,20,18.0,10,25.613829,-0.017283,0.000000,0
37,1.860000,-51.751159,45.682021,0.310159,7.312233,-0.000750,0.000292,0.034130,0.000316,-0.009113,-3.085392,0.004550,0.000286,0.999595,-0.028097,1,15.696593,99.970810,47.035597,16,18,20,18.0,10,26.321467,-0.014854,0.000000,0
38,1.910000,-52.122114,45.660620,0.310190,7.510928,0.001392,0.000288,0.028221,0.000320,-0.009098,-3.083843,0.004543,0.000291,0.999573,-0.028871,1,18.239700,99.978874,46.931010,16,18,20,18.0,10,27.028764,-0.011598,0.000000,0
39,1.960000,-52.502964,45.638230,0.310221,7.709638,0.002410,0.000204,0.019459,0.000428,-0.009087,-3.082659,0.004535,0.000348,0.999556,-0.029463,1,11.907135,99.942970,46.773024,15,18,20,17.666666666666668,10,27.735688,-0.007003,0.000000,0
40,2.010000,-52.893704,45.614895,0.310242,7.908039,0.002730,0.000132,0.018270,0.000551,-0.009079,-3.081820,0.004529,0.000411,0.999543,-0.029883,1,11.729435,99.964745,46.681239,15,18,20,17.666666666666668,10,28.442239,-0.008366,0.000000,0
41,2.060000,-53.294318,45.590590,0.310252,8.106390,-0.002615,0.000037,0.019104,0.000534,-0.009076,-3.080842,0.004528,0.000405,0.999528,-0.030372,1,15.416670,99.903564,46.625033,15,18,19,17.333333333333332,10,29.148359,-0.007521,0.000000,0
42,2.110000,-53.704805,45.565198,0.310250,8.304771,-0.005956,-0.000043,0.019484,0.000264,-0.009077,-3.079903,0.004532,0.000272,0.999514,-0.030840,1,16.929274,99.993843,46.580963,15,18,19,17.333333333333332,10,29.854080,-0.008043,0.000000,0
43,2.160000,-54.125166,45.538797,0.310241,8.503141,-0.002949,-0.000077,0.018815,0.000022,-0.009080,-3.078923,0.004538,0.000153,0.999499,-0.031329,1,11.717409,99.909019,46.418515,15,18,20,17.666666666666668,10,30.559387,-0.007108,0.000000,0
44,2.210000,-54.543624,45.511845,0.312501,8.195155,0.018076,-0.119936,0.038869,-0.001010,-0.011645,-3.077916,0.005836,-0.000319,0.999476,-0.031830,1,16.286203,99.987534,46.214302,16,19,19,18.0,10,31.288358,0.003512,0.000000,0
45,2.260000,-54.965543,45.485657,0.313811,8.749601,0.004361,-0.177639,-0.022572,-0.000936,-0.018621,-3.077012,0.009321,-0.000167,0.999435,-0.032279,1,19.573000,99.997185,45.696273,17,21,20,19.333333333333332,8,31.916113,0.009982,0.000000,0
46,2.310000,-55.413714,45.457168,0.310340,9.074788,-0.002609,-0.125013,-0.035884,-0.000821,-0.026514,-3.078643,0.013263,0.000007,0.999417,-0.031462,1,19.401981,99.946854,45.334695,20,25,22,22.333333333333332,8,32.675129,0.014524,0.000000,0
47,2.360000,-55.872183,45.428934,0.307876,9.268348,-0.008832,-0.029500,-0.043449,-0.001079,-0.029813,-3.080684,0.014916,-0.000085,0.999425,-0.030438,1,19.278437,99.971779,45.223577,22,27,23,24.0,8,33.373830,0.015710,0.000000,0
48,2.410000,-56.341861,45.401005,0.306733,9.503945,-0.008839,0.032789,-0.044902,-0.001502,-0.029291,-3.082894,0.014661,-0.000321,0.999462,-0.029331,1,19.097879,99.995522,45.188887,25,33,25,27.666666666666668,7,34.074866,0.016080,0.000000,0
49,2.460000,-56.822675,45.373584,0.306946,9.714740,0.006637,0.061876,-0.038016,-0.001457,-0.026639,-3.085036,0.013334,-0.000352,0.999512,-0.028263,1,15.235647,99.990707,44.800009,28,38,26,30.666666666666668,7,34.779832,0.011635,0.000000,0
50,2.510000,-57.313644,45.346663,0.308232,9.912569,0.016403,0.058604,-0.028188,-0.000732,-0.023537,-3.086633,0.011774,-0.000042,0.999553,-0.027470,1,17.293842,99.998451,44.617623,25,34,24,27.666666666666668,7,35.483491,0.008530,0.000000,0
51,2.560000,-57.814038,45.318785,0.325551,10.151945,-0.001338,0.146651,-0.012428,-0.001458,-0.016437,-3.087868,0.008235,-0.000508,0.999605,-0.026852,1,18.435261,99.949928,45.044892,22,29,22,24.333333333333332,7,36.176511,0.001696,0.000000,0
52,2.610000,-58.326321,45.291441,0.345439,10.339007,0.010375,0.126354,0.001782,-0.001140,-0.009560,-3.088006,0.004794,-0.000442,0.999630,-0.026787,1,14.574038,99.987877,45.066308,16,18,20,18.0,7,36.886636,-0.001414,0.000000,0
53,2.660000,-58.847619,45.263552,0.360462,10.516423,0.016961,0.074203,0.013070,-0.000443,-0.004730,-3.087636,0.002370,-0.000158,0.999633,-0.026975,1,18.483997,99.999596,45.006724,17,20,21,19.333333333333332,7,37.588371,-0.005554,0.000000,0
54,2.710000,-59.377929,45.234909,0.367342,10.693770,0.016310,0.016603,0.012455,0.000435,-0.002773,-3.086863,0.001380,0.000255,0.999625,-0.027362,1,18.392048,99.896950,44.672319,17,20,21,19.333333333333332,7,38.290102,-0.002953,0.000000,0
55,2.760000,-59.917257,45.205397,0.366544,10.876506,0.003950,-0.027360,0.002574,0.000936,-0.003341,-3.086514,0.001657,0.000514,0.999619,-0.027536,1,16.297983,99.637871,44.803099,17,21,22,20.0,7,38.990175,0.000270,0.000000,0
56,2.810000,-60.465909,45.175072,0.360824,11.067389,-0.011902,-0.049146,-0.000271,0.000637,-0.005456,-3.086539,0.002718,0.000394,0.999617,-0.027524,1,17.824209,99.952637,44.834291,17,21,21,19.666666666666668,7,39.688856,-0.000002,0.000000,0
57,2.860000,-61.024282,45.144029,0.353600,11.265307,-0.013889,-0.049287,0.002722,-0.000107,-0.007994,-3.086480,0.003997,0.000057,0.999612,-0.027552,1,18.216780,99.991539,44.752154,17,19,21,19.0,7,40.386538,-0.001185,0.000000,0
58,2.910000,-61.592699,45.112406,0.347659,11.467783,0.005511,-0.034495,0.013359,-0.000294,-0.010056,-3.086121,0.005030,-0.000008,0.999603,-0.027731,1,16.332878,99.969482,44.261963,16,18,20,18.0,7,41.083590,-0.005414,0.000000,0
59,2.960000,-62.171296,45.080025,0.344473,11.671913,0.022150,-0.013812,0.032544,0.000512,-0.011167,-3.084967,0.005574,0.000414,0.999584,-0.028310,1,18.153111,99.411484,43.885521,16,19,19,18.0,7,41.780279,-0.011303,0.000000,0
60,3.010000,-62.759584,45.046104,0.344257,11.834334,0.007006,0.033814,0.047703,0.001176,-0.011063,-3.082843,0.005512,0.000750,0.999553,-0.029373,1,18.119247,99.910454,43.450991,16,20,20,18.666666666666668,7,42.498204,-0.018155,0.000000,0
61,3.060000,-63.349941,45.011309,0.347511,11.861435,-0.027531,0.193673,0.070978,0.001255,-0.003931,-3.080421,0.001945,0.000687,0.999530,-0.030582,1,18.081039,99.994072,43.238317,15,19,21,18.333333333333332,7,43.161031,-0.023520,0.000000,0
62,3.110000,-63.956472,44.972448,0.348954,12.320979,0.021586,0.115793,0.088043,0.002375,0.003408,-3.076760,-0.001741,0.001132,0.999473,-0.032408,1,18.040575,99.927872,42.674071,24,27,26,25.666666666666668,7,43.853611,-0.024547,0.000000,0
63,3.160000,-64.576787,44.930485,0.349577,12.497339,0.014219,0.063750,0.091847,0.003288,0.007615,-3.072212,-0.003862,0.001511,0.999390,-0.034677,1,14.723098,99.856056,42.538456,78,73,68,73.0,7,44.567560,-0.024756,0.000000,0
64,3.210000,-65.205056,44.884839,0.350589,12.669594,-0.005282,0.008835,0.094694,0.003439,0.009117,-3.067561,-0.004619,0.001550,0.999303,-0.036999,1,17.945814,99.839554,42.133282,153,148,116,139.0,7,45.261156,-0.025085,0.000000,0
65,3.260000,-65.841797,44.833478,0.347689,12.842379,0.083859,-0.096835,0.061154,0.004928,0.007157,-3.063449,-0.003672,0.002322,0.999228,-0.039053,1,17.895258,99.872604,41.881556,130,121,113,121.33333333333333,7,45.966645,-0.027284,0.000000,0
66,3.310000,-66.485550,44.777563,0.329733,13.003302,-0.027811,-0.166447,0.120163,0.005276,-0.000564,-3.058924,0.000173,0.002647,0.999142,-0.041323,1,17.837719,99.971268,41.638606,125,116,109,116.66666666666667,7,46.652077,-0.034228,0.000000,0
67,3.360000,-67.139091,44.719677,0.311368,13.209870,-0.005081,-0.144392,0.161543,0.004256,-0.008496,-3.051839,0.004148,0.002317,0.998982,-0.044870,1,16.964073,99.979095,41.114817,41,40,40,40.333333333333336,7,47.342506,-0.044009,0.000000,0
68,3.410000,-67.801615,44.656145,0.298875,13.391491,0.020984,-0.078637,0.205360,0.004526,-0.013808,-3.042442,0.006783,0.002602,0.998744,-0.049569,1,16.500399,99.997185,41.082965,17,20,20,19.0,7,48.030347,-0.052378,0.000000,0
69,3.460000,-68.473163,44.585147,0.294276,13.588552,0.040668,-0.011316,0.229110,0.005848,-0.015703,-3.031405,0.007679,0.003352,0.998446,-0.055087,1,17.624926,99.961433,41.206071,15,18,18,17.0,7,48.629947,-0.056124,0.000000,0
70,3.510000,-69.152943,44.505779,0.296606,13.745187,0.033770,0.044539,0.246801,0.007522,-0.014612,-3.019374,0.007062,0.004200,0.998098,-0.061097,1,17.538958,99.993484,40.977674,18,22,21,20.333333333333332,7,49.023058,-0.055908,0.000000,0
71,3.560000,-69.836922,44.418439,0.303644,13.823964,0.011191,0.078299,0.267210,0.008211,-0.011294,-3.006434,0.005357,0.004478,0.997692,-0.067549,1,17.440090,99.959778,40.662773,15,18,19,17.333333333333332,7,49.353647,-0.057341,0.000000,0
72,3.610000,-70.522836,44.321795,0.311982,13.869786,0.009249,0.080293,0.276329,0.008509,-0.007335,-2.992865,0.003341,0.004515,0.997219,-0.074310,1,17.329464,99.789284,40.429318,25,28,26,26.333333333333332,7,49.426035,-0.059683,0.000000,0
73,3.660000,-71.208598,44.215494,0.318927,13.882119,0.015361,0.061037,0.287509,0.008963,-0.003966,-2.978706,0.001612,0.004628,0.996673,-0.081361,1,17.209120,99.926666,40.783246,26,27,27,26.666666666666668,7,49.431522,-0.061767,0.000000,0
74,3.710000,-71.892544,44.099588,0.323032,13.865478,0.005612,0.032981,0.295436,0.009415,-0.001890,-2.964092,0.000524,0.004773,0.996052,-0.088637,1,17.079214,99.889931,40.851211,25,28,26,26.333333333333332,6,49.435891,-0.062641,0.000000,0
75,3.760000,-72.573306,43.973659,0.324149,13.834696,-0.003294,0.006046,0.292141,0.009410,-0.001205,-2.949444,0.000148,0.004741,0.995377,-0.095928,1,16.938408,99.385437,41.002122,28,30,28,28.666666666666668,6,49.436839,-0.062903,0.000000,0
76,3.810000,-73.251986,43.837615,0.322623,13.847289,-0.001818,-0.018768,0.300033,0.009204,-0.001875,-2.934679,0.000457,0.004674,0.994642,-0.103276,1,16.787699,99.135971,40.873154,89,82,77,82.66666666666667,7,49.435593,-0.063991,0.000000,0
77,3.860000,-73.928752,43.691524,0.319792,13.849062,0.007573,-0.025748,0.309770,0.009407,-0.003211,-2.919566,0.001074,0.004852,0.993831,-0.110792,1,16.628344,99.994049,40.915674,35,35,34,34.666666666666664,7,49.435056,-0.066102,0.000000,0
78,3.910000,-74.602335,43.535463,0.317241,13.812431,0.006259,-0.014641,0.324109,0.009728,-0.004357,-2.903777,0.001586,0.005088,0.992923,-0.118637,1,16.458801,99.943298,41.025855,60,60,62,60.666666666666664,7,49.438960,-0.070193,0.000000,0
79,3.960000,-75.272192,43.368837,0.315709,13.814757,0.013728,-0.008497,0.343617,0.010154,-0.005005,-2.887177,0.001838,0.005353,0.991902,-0.126876,1,16.278021,99.957123,41.384785,43,42,43,42.666666666666664,8,49.428080,-0.074320,0.000000,0
80,4.010000,-75.940610,43.190720,0.314812,13.840639,0.018346,-0.002760,0.352927,0.010888,-0.005511,-2.869667,0.001992,0.005767,0.990751,-0.135557,1,16.067101,99.982979,41.464955,18,22,22,20.666666666666668,8,49.434529,-0.074827,0.000000,0
81,4.060000,-76.605556,43.000827,0.315005,13.819424,0.010428,0.010567,0.345027,0.011510,-0.005457,-2.852250,0.001870,0.006088,0.989531,-0.144180,1,15.551654,99.891762,41.450606,16,19,19,18.0,8,49.437569,-0.074054,0.000000,0
82,4.110000,-77.266324,42.799305,0.315953,13.821215,-0.003083,0.012135,0.336578,0.011522,-0.005032,-2.835294,0.001607,0.006078,0.988274,-0.152563,1,15.045701,99.995148,41.372462,25,31,27,27.666666666666668,8,49.432782,-0.072224,0.000000,0
83,4.160000,-77.923900,42.586645,0.316891,13.831756,-0.005808,0.009572,0.349574,0.011021,-0.004639,-2.818283,0.001402,0.005812,0.986943,-0.160961,1,14.589035,99.953293,41.299575,24,27,26,25.666666666666668,8,49.430255,-0.074724,0.000000,0
84,4.210000,-78.578612,42.362709,0.317407,13.840521,0.004195,0.007045,0.362917,0.010905,-0.004461,-2.800459,0.001272,0.005752,0.985470,-0.169750,1,14.113442,99.993881,40.987285,18,21,23,20.666666666666668,8,49.434526,-0.077263,0.000000,0
85,4.260000,-79.228067,42.127469,0.317929,13.799298,0.011319,0.011601,0.372403,0.011218,-0.004154,-2.782136,0.001041,0.005890,0.983873,-0.178771,1,13.690612,99.998077,40.560767,20,22,27,23.0,9,49.436213,-0.080791,0.000000,0
86,4.310000,-79.872228,41.880377,0.318186,13.802109,0.014375,0.005179,0.375591,0.011825,-0.003981,-2.763424,0.000844,0.006181,0.982155,-0.187967,1,11.316685,99.964241,40.145835,16,19,21,18.666666666666668,9,49.433854,-0.080947,0.000000,0
87,4.360000,-80.512774,41.620799,0.317789,13.830779,0.012196,-0.002306,0.375088,0.012420,-0.004250,-2.744642,0.000859,0.006507,0.980345,-0.197184,1,12.944077,99.973289,40.093296,18,22,21,20.333333333333332,9,49.434067,-0.079474,0.000000,0
88,4.410000,-81.147898,41.349320,0.317464,13.804600,0.000967,0.003224,0.364038,0.012610,-0.004423,-2.726297,0.000864,0.006625,0.978494,-0.206168,1,12.649653,99.972084,39.988086,37,40,34,37.0,9,49.435716,-0.078264,0.000000,0
89,4.460000,-81.777369,41.066428,0.317291,13.804343,-0.006401,0.002692,0.366189,0.012262,-0.004503,-2.708128,0.000880,0.006472,0.976582,-0.215049,1,12.375244,99.987999,40.034821,22,25,23,23.333333333333332,9,49.433753,-0.079040,0.000000,0
90,4.510000,-82.401790,40.772088,0.317092,13.819389,-0.001116,0.000672,0.380315,0.011901,-0.004598,-2.689574,0.000907,0.006314,0.974545,-0.224099,1,10.623068,99.997223,40.076415,43,43,46,44.0,9,49.429675,-0.081243,0.000000,0
91,4.560000,-83.021006,40.466035,0.316929,13.800697,0.005403,0.007212,0.380415,0.011968,-0.004661,-2.670541,0.000870,0.006362,0.972368,-0.233363,1,11.978941,99.954262,40.060729,31,37,31,33.0,9,49.437491,-0.082123,0.000000,0
92,4.610000,-83.633395,40.148568,0.317090,13.799540,0.004961,0.006303,0.378937,0.012125,-0.004521,-2.651604,0.000722,0.006430,0.970115,-0.242559,1,11.836045,99.795418,39.959232,67,69,75,70.33333333333333,9,49.433141,-0.081509,0.000000,0
93,4.660000,-84.240051,39.819268,0.317132,13.815529,0.003966,0.002471,0.372812,0.012231,-0.004529,-2.632921,0.000653,0.006489,0.967807,-0.251611,2,10.857925,99.956284,39.793017,32,36,31,33.0,9,49.429698,-0.079640,0.000000,0
94,4.710000,-84.841379,39.478405,0.316997,13.823421,0.000641,0.003178,0.372413,0.012196,-0.004671,-2.614347,0.000666,0.006496,0.965428,-0.260588,2,11.759249,99.997551,39.703891,37,38,36,37.0,9,49.433267,-0.079546,0.000000,0
95,4.760000,-85.435349,39.126980,0.317204,13.797397,-0.001487,0.008440,0.374407,0.012018,-0.004523,-2.595800,0.000558,0.006396,0.962971,-0.269529,2,11.765342,99.989082,39.678190,66,64,64,64.66666666666667,9,49.434510,-0.080818,0.000000,0
96,4.810000,-86.022370,38.764760,0.317409,13.796729,0.003155,0.006549,0.382577,0.011934,-0.004384,-2.576915,0.000443,0.006341,0.960383,-0.278610,2,13.163223,99.972000,39.578626,35,40,33,36.0,9,49.433893,-0.082722,0.000000,0
97,4.860000,-86.603568,38.390867,0.317200,13.831581,0.012507,-0.000047,0.391192,0.012284,-0.004567,-2.557516,0.000418,0.006539,0.957634,-0.287912,2,11.986158,99.819916,39.496704,30,34,29,31.0,9,49.433528,-0.083215,0.000000,0
98,4.910000,-87.176702,38.006036,0.317250,13.799834,0.007530,0.007293,0.379453,0.012722,-0.004526,-2.538398,0.000271,0.006746,0.954837,-0.297053,2,12.080833,99.920074,39.380948,84,80,75,79.66666666666667,9,49.435220,-0.081519,0.000000,0
99,4.960000,-87.742123,37.610484,0.317329,13.805638,-0.001751,0.004621,0.370376,0.012623,-0.004471,-2.519690,0.000197,0.006693,0.952017,-0.305971,2,12.304589,99.980919,39.277330,74,72,72,72.66666666666667,9,49.433342,-0.079501,0.000000,0
100,5.010000,-88.300267,37.204170,0.317281,13.815440,-0.005851,0.002293,0.367532,0.012254,-0.004512,-2.501391,0.000213,0.006526,0.949179,-0.314668,2,12.542513,99.939636,39.208490,70,68,70,69.33333333333333,9,49.429601,-0.078680,0.000000,0
101,5.060000,-88.851601,36.787431,0.317076,13.813062,-0.005337,0.005020,0.370079,0.011823,-0.004641,-2.482950,0.000284,0.006344,0.946238,-0.323408,2,12.805321,99.999611,39.139632,26,29,29,28.0,9,49.438492,-0.079765,0.000000,0
102,5.110000,-89.394213,36.361275,0.317206,13.797622,-0.001715,0.007547,0.374105,0.011542,-0.004484,-2.464408,0.000198,0.006188,0.943201,-0.332166,2,13.109418,98.582962,38.921589,18,21,21,20.0,9,49.433981,-0.080668,0.000000,0
103,5.160000,-89.929045,35.924936,0.317198,13.820732,0.006511,0.001207,0.376075,0.011573,-0.004462,-2.445735,0.000124,0.006200,0.940058,-0.340957,2,13.638552,99.407539,38.814473,19,23,22,21.333333333333332,9,49.429693,-0.080064,0.000000,0
104,5.210000,-90.456660,35.477945,0.316932,13.826569,0.007306,0.002233,0.365555,0.011889,-0.004674,-2.427228,0.000111,0.006386,0.936862,-0.349642,2,13.907897,99.896446,38.739341,20,24,22,22.0,9,49.438957,-0.078042,0.000000,0
105,5.260000,-90.975346,35.021789,0.317005,13.807976,-0.001730,0.007261,0.358411,0.011877,-0.004619,-2.409235,0.000030,0.006372,0.933678,-0.358056,2,14.398032,99.891594,38.678639,38,43,35,38.666666666666664,9,49.435188,-0.077010,0.000000,0
106,5.310000,-91.485387,34.556705,0.317198,13.806100,-0.005109,0.006577,0.358374,0.011534,-0.004476,-2.391392,-0.000030,0.006186,0.930448,-0.366371,2,14.764431,99.958885,38.603721,53,59,44,52.0,9,49.433898,-0.077187,0.000000,0
107,5.360000,-91.988018,34.081939,0.317055,13.837999,0.003673,0.000271,0.369840,0.011389,-0.004606,-2.373179,0.000001,0.006142,0.927074,-0.374829,2,15.209708,98.203270,38.404545,41,47,38,42.0,9,49.433216,-0.078765,0.000000,0
108,5.410000,-92.481643,33.598333,0.317092,13.805153,0.007014,0.008601,0.369965,0.011601,-0.004579,-2.354750,-0.000109,0.006235,0.923580,-0.383356,2,15.929039,98.748634,38.308638,39,48,38,41.666666666666664,9,49.437319,-0.079951,0.000000,0
109,5.460000,-92.965412,33.106329,0.317344,13.802618,0.004708,0.007137,0.368155,0.011792,-0.004379,-2.336322,-0.000296,0.006283,0.920008,-0.391848,2,16.603354,99.280296,38.156785,42,46,40,42.666666666666664,9,49.433633,-0.079097,0.000000,0
110,5.510000,-93.440479,32.604875,0.317291,13.828098,0.002885,0.000305,0.358510,0.011876,-0.004435,-2.318233,-0.000344,0.006329,0.916426,-0.400154,2,16.840889,99.852150,38.115226,32,40,31,34.333333333333336,9,49.431451,-0.076094,0.000000,0
111,5.560000,-93.907005,32.094397,0.317067,13.824197,-0.006047,0.002828,0.345115,0.011667,-0.004623,-2.300729,-0.000271,0.006269,0.912889,-0.408159,2,14.810220,99.922623,38.042104,29,36,29,31.333333333333332,9,49.437422,-0.074025,0.000000,0
112,5.610000,-94.363927,31.576747,0.317162,13.804381,-0.011391,0.007144,0.351886,0.011003,-0.004519,-2.283426,-0.000234,0.005942,0.909326,-0.416041,2,9.837307,99.903778,38.051695,33,36,30,33.0,9,49.434683,-0.076022,0.000000,0
113,5.660000,-94.811976,31.051035,0.317119,13.828340,0.004154,0.001417,0.358198,0.010664,-0.004502,-2.265651,-0.000223,0.005783,0.905594,-0.424107,2,18.601738,99.869049,38.020977,33,39,32,34.666666666666664,9,49.430778,-0.076811,0.000000,0
114,5.710000,-95.251472,30.516733,0.316857,13.839724,0.011236,0.000747,0.363261,0.010950,-0.004684,-2.247604,-0.000255,0.005949,0.901729,-0.432261,2,19.357695,99.988197,38.058406,34,39,32,35.0,9,49.434433,-0.077268,0.000000,0
115,5.760000,-95.680803,29.974853,0.316880,13.818444,0.006604,0.006859,0.346716,0.011380,-0.004661,-2.229937,-0.000412,0.006135,0.897874,-0.440209,2,14.286395,99.834900,38.081470,20,22,22,21.333333333333332,8,49.435951,-0.074257,0.000000,0
116,5.810000,-96.100097,29.426060,0.317115,13.812297,-0.005046,0.007334,0.341920,0.011199,-0.004481,-2.212832,-0.000505,0.006010,0.894077,-0.447872,2,18.284042,99.933716,37.944347,35,40,32,35.666666666666664,8,49.434246,-0.073423,0.000000,0
117,5.860000,-96.510553,28.869456,0.317057,13.841217,-0.002226,0.000646,0.341482,0.010915,-0.004549,-2.195760,-0.000461,0.005895,0.890222,-0.455488,2,17.213432,99.967850,37.941012,47,55,43,48.333333333333336,8,49.433161,-0.072541,0.000000,0
118,5.910000,-96.911673,28.305867,0.317003,13.822721,-0.002986,0.005931,0.342632,0.010652,-0.004605,-2.178728,-0.000425,0.005787,0.886312,-0.463052,2,17.083910,99.982353,37.940812,41,48,36,41.666666666666664,8,49.438601,-0.073884,0.000000,0
119,5.960000,-97.302438,27.736253,0.317199,13.808935,-0.000160,0.008166,0.347353,0.010532,-0.004434,-2.161517,-0.000522,0.005690,0.882295,-0.470662,2,16.532011,99.967171,37.782182,37,45,38,40.0,8,49.435284,-0.074942,0.000000,0
120,6.010000,-97.683864,27.159545,0.317136,13.838466,0.008943,0.000949,0.357981,0.010673,-0.004473,-2.143863,-0.000589,0.005756,0.878106,-0.478432,2,15.914175,99.967384,37.751711,45,57,41,47.666666666666664,8,49.433131,-0.076046,0.000000,0
121,6.060000,-98.055258,26.575762,0.316992,13.832465,0.010984,0.003237,0.348282,0.011188,-0.004602,-2.126236,-0.000708,0.006007,0.873853,-0.486152,2,15.420994,99.870827,37.616721,34,36,32,34.0,8,49.439058,-0.074416,0.000000,0
122,6.110000,-98.415799,25.986020,0.317085,13.819936,-0.001779,0.006151,0.335374,0.011296,-0.004546,-2.109235,-0.000811,0.006034,0.869689,-0.493563,2,14.854929,99.880318,37.562745,32,37,31,33.333333333333336,8,49.435147,-0.071826,0.000000,0
123,6.160000,-98.766103,25.390548,0.317215,13.823202,-0.010017,0.004287,0.331764,0.010772,-0.004433,-2.092685,0.000778,-0.005772,-0.865577,0.500742,2,14.348284,99.992332,37.407298,41,45,35,40.333333333333336,8,49.430417,-0.070837,0.000000,0
124,6.210000,-99.107108,24.788523,0.317037,13.844542,-0.003436,-0.000055,0.336060,0.010366,-0.004566,-2.076072,0.000666,-0.005624,-0.861389,0.507915,2,13.896021,99.938011,37.349864,24,27,26,25.666666666666668,8,49.433617,-0.071679,0.000000,0
125,6.260000,-99.437984,24.181164,0.317007,13.826543,0.000569,0.004929,0.341128,0.010269,-0.004582,-2.059298,0.000681,-0.005581,-0.857099,0.515121,2,13.436856,99.926567,37.297847,33,34,32,33.0,8,49.432051,-0.073372,0.000000,0
126,6.310000,-99.758343,23.568728,0.317095,13.830827,0.006427,0.003912,0.341218,0.010344,-0.004485,-2.042301,0.000790,-0.005582,-0.852690,0.522387,2,13.012194,99.991920,37.108205,35,37,33,35.0,8,49.431848,-0.072918,0.000000,0
127,6.360000,-100.068658,22.950329,0.316995,13.841483,0.006522,0.001684,0.335212,0.010581,-0.004553,-2.025420,0.000871,-0.005693,-0.848250,0.529565,2,12.609385,99.960457,36.959168,38,42,33,37.666666666666664,8,49.434126,-0.071049,0.000000,0
128,6.410000,-100.368622,22.326753,0.316938,13.837317,-0.000005,0.003200,0.328992,0.010612,-0.004614,-2.008918,0.000900,-0.005715,-0.843851,0.536546,2,12.259638,99.972900,36.753071,33,39,28,33.333333333333336,8,49.433517,-0.070286,0.000000,0
129,6.460000,-100.657732,21.699127,0.317151,13.813719,-0.003108,0.007921,0.331052,0.010381,-0.004455,-1.992557,0.000951,-0.005568,-0.839435,0.543431,1,11.937458,99.982681,36.579382,40,45,34,39.666666666666664,8,49.435254,-0.071858,0.000000,0
130,6.510000,-100.936917,21.066390,0.317131,13.840611,0.004984,0.001581,0.348189,0.010291,-0.004466,-1.975517,0.000969,-0.005525,-0.834775,0.550563,1,11.676927,99.988571,36.493654,49,46,42,45.666666666666664,8,49.433281,-0.074151,0.000000,0
131,6.560000,-101.205569,20.428606,0.317010,13.842393,0.013335,0.001704,0.357259,0.010729,-0.004576,-1.957930,0.001094,-0.005728,-0.829899,0.557883,1,11.607606,99.995338,36.338809,35,38,33,35.333333333333336,8,49.434402,-0.076072,0.000000,0
132,6.610000,-101.462411,19.786715,0.317116,13.818013,0.010202,0.006957,0.345980,0.011316,-0.004526,-1.940411,0.001331,-0.005947,-0.824979,0.565130,1,11.296165,99.996719,36.116726,46,48,44,46.0,8,49.435979,-0.074330,0.000000,0
133,6.660000,-101.707615,19.140826,0.317282,13.824172,-0.002897,0.004421,0.334154,0.011322,-0.004409,-1.923510,0.001431,-0.005904,-0.820174,0.572081,1,12.713836,99.974396,35.959093,56,68,50,58.0,8,49.431165,-0.071036,0.000000,0
134,6.710000,-101.942250,18.490055,0.317143,13.841376,-0.010036,0.000404,0.322588,0.010846,-0.004517,-1.907178,0.001297,-0.005730,-0.815477,0.578760,1,11.389553,99.984116,35.830893,51,56,44,50.333333333333336,8,49.433704,-0.068367,0.000000,0
135,6.760000,-102.166272,17.835625,0.317054,13.831369,-0.009061,0.003229,0.322018,0.010174,-0.004576,-1.891231,0.001122,-0.005464,-0.810838,0.585244,1,11.414226,99.968315,35.583084,49,61,44,51.333333333333336,8,49.431739,-0.069804,0.000000,0
136,6.810000,-102.379805,17.178099,0.317079,13.833426,0.000766,0.003375,0.337828,0.009753,-0.004519,-1.874778,0.001065,-0.005268,-0.805997,0.591895,1,11.419271,99.990280,35.448161,46,56,42,48.0,8,49.431396,-0.072718,0.000000,0
137,6.860000,-102.582857,16.516433,0.316937,13.843352,0.013093,0.002532,0.348717,0.010107,-0.004589,-1.857617,0.001189,-0.005421,-0.800888,0.598789,1,10.338522,99.997253,35.304167,29,33,29,30.333333333333332,8,49.435083,-0.074204,0.000000,0
138,6.910000,-102.774546,15.851453,0.316895,13.842391,0.013767,0.003104,0.339911,0.010756,-0.004617,-1.840415,0.001420,-0.005678,-0.795706,0.605655,1,11.256582,99.845612,35.240387,39,40,38,39.0,8,49.434398,-0.072137,0.000000,0
139,6.960000,-102.954400,15.183963,0.317092,13.821588,-0.000067,0.006815,0.328897,0.010948,-0.004494,-1.823864,0.001575,-0.005704,-0.790667,0.612218,1,11.411717,98.701591,35.083796,39,44,35,39.333333333333336,8,49.434950,-0.070654,0.000000,0
140,7.010000,-103.123138,14.513527,0.317191,13.834982,-0.007344,0.002944,0.324704,0.010567,-0.004427,-1.807595,0.001529,-0.005520,-0.785662,0.618630,1,11.821273,98.032654,34.969556,40,45,34,39.666666666666664,8,49.432334,-0.068904,0.000000,0
141,7.060000,-103.281239,13.839782,0.317079,13.844319,-0.004374,0.001044,0.330299,0.010207,-0.004521,-1.791372,0.001425,-0.005396,-0.780619,0.624983,1,6.038755,97.328850,34.943977,47,56,36,46.333333333333336,8,49.433912,-0.070421,0.000000,0
142,7.110000,-103.428244,13.164166,0.317158,13.814843,0.004193,0.007185,0.336029,0.010142,-0.004472,-1.774797,0.001468,-0.005344,-0.775413,0.631431,1,12.414664,96.660500,34.903479,37,40,35,37.333333333333336,7,49.436694,-0.073421,0.000000,0
143,7.160000,-103.563940,12.486314,0.317193,13.833356,0.007639,0.002649,0.345122,0.010339,-0.004443,-1.757691,0.001588,-0.005398,-0.769983,0.638039,1,12.342891,99.852753,34.849549,43,46,39,42.666666666666664,7,49.432216,-0.073452,0.000000,0
144,7.210000,-103.688219,11.805696,0.317058,13.839279,0.008825,0.001874,0.337402,0.010678,-0.004529,-1.740657,0.001710,-0.005542,-0.764520,0.644574,1,12.081358,99.364677,34.855256,34,37,33,34.666666666666664,7,49.434534,-0.071469,0.000000,0
145,7.260000,-103.800708,11.123008,0.316970,13.834799,-0.002842,0.003104,0.314857,0.010758,-0.004596,-1.724431,0.001755,-0.005580,-0.759265,0.650755,1,11.892124,94.588058,34.782872,40,46,35,40.333333333333336,7,49.435960,-0.067192,0.000000,0
146,7.310000,-103.901994,10.438891,0.317007,13.835490,-0.012971,0.003298,0.303982,0.010130,-0.004569,-1.709143,0.001602,-0.005320,-0.754270,0.656541,1,11.664223,97.483437,34.774215,48,54,42,48.0,7,49.431758,-0.065301,0.000000,0
147,7.360000,-103.992975,9.752710,0.316939,13.847023,-0.009933,0.002405,0.295652,0.009460,-0.004601,-1.694201,0.001408,-0.005068,-0.749346,0.662158,1,11.540805,99.704445,34.711375,35,37,35,35.666666666666664,7,49.434297,-0.062934,0.000000,0
148,7.410000,-104.073931,9.064827,0.316863,13.851703,-0.007774,0.002759,0.285283,0.009010,-0.004638,-1.679801,0.001281,-0.004902,-0.744560,0.667536,1,11.424573,95.701797,34.664343,40,44,38,40.666666666666664,7,49.434929,-0.060792,0.000000,0
149,7.460000,-104.145076,8.375862,0.316881,13.854714,-0.009081,0.002855,0.268175,0.008539,-0.004616,-1.666058,0.001164,-0.004712,-0.739957,0.672637,1,11.386083,97.428314,34.593388,56,65,46,55.666666666666664,7,49.434284,-0.057080,0.000000,0
150,7.510000,-104.206713,7.685130,0.316767,13.879723,-0.028957,-0.000955,0.161226,0.007656,-0.004687,-1.654964,0.000865,-0.004404,-0.736216,0.676732,1,11.373979,96.372765,34.524713,34,38,32,34.666666666666664,7,49.433120,-0.027916,0.000000,0
151,7.560000,-104.261091,6.993002,0.316623,13.890890,-0.070459,-0.000795,0.044437,0.005085,-0.004747,-1.650667,-0.000020,-0.003478,-0.734765,0.678312,1,11.322541,99.969925,34.550984,40,45,38,41.0,7,49.432309,-0.008330,0.000000,0
152,7.610000,-104.313797,6.300408,0.316572,13.888531,-0.086964,0.001975,0.009912,0.000738,-0.004726,-1.649670,-0.001485,-0.001875,-0.734433,0.678677,1,11.281718,99.966866,34.701980,43,48,39,43.333333333333336,7,49.435563,-0.001777,0.000000,0
153,7.660000,-104.367180,5.608078,0.316696,13.887879,-0.034423,0.002565,0.011491,-0.002279,-0.004599,-1.649287,-0.002462,-0.000724,-0.734305,0.678815,1,11.220328,99.367615,34.604207,44,49,40,44.333333333333336,7,49.434820,-0.002688,0.000000,0
154,7.710000,-104.421756,4.915806,0.316848,13.888281,0.029017,0.001925,0.037926,-0.002037,-0.004487,-1.648090,-0.002338,-0.000777,-0.733899,0.679254,1,11.174501,98.620209,34.595674,45,50,40,45.0,7,49.435090,-0.008480,0.000000,0
155,7.760000,-104.475983,4.223564,0.316986,13.886786,0.044293,0.001123,0.063784,0.000041,-0.004410,-1.645443,-0.001602,-0.001515,-0.732998,0.680227,1,11.229062,97.837563,34.569392,46,50,41,45.666666666666664,7,49.435088,-0.013785,0.000000,0
156,7.810000,-104.527853,3.531193,0.317066,13.885866,0.034770,0.000216,0.081617,0.001919,-0.004387,-1.641717,-0.000951,-0.002197,-0.731728,0.681593,1,11.332556,98.234978,34.560319,42,47,39,42.666666666666664,6,49.435162,-0.017638,0.000000,0
157,7.860000,-104.576555,2.838641,0.317085,13.884990,0.029802,-0.000260,0.087944,0.003503,-0.004404,-1.637428,-0.000411,-0.002783,-0.730262,0.683161,1,11.503725,99.883781,34.487073,50,59,44,51.0,6,49.435127,-0.018883,0.000000,0
158,7.910000,-104.621860,2.145884,0.317057,13.884782,0.005444,-0.000500,0.086779,0.004343,-0.004442,-1.633056,-0.000132,-0.003103,-0.728766,0.684756,1,11.494566,99.978600,34.406113,55,66,49,56.666666666666664,6,49.435014,-0.018437,0.000000,0
159,7.960000,-104.663575,1.452893,0.316997,13.885105,-0.022829,-0.000543,0.081001,0.003661,-0.004487,-1.628876,-0.000375,-0.002871,-0.727334,0.686277,1,11.692496,99.953979,34.485447,57,70,50,59.0,7,49.434979,-0.017249,0.000000,0
160,8.010000,-104.702231,0.759707,0.316936,13.885420,-0.015760,-0.000253,0.076014,0.002559,-0.004518,-1.624991,-0.000760,-0.002483,-0.726001,0.687689,1,12.010622,97.719254,34.438999,55,67,50,57.333333333333336,7,49.434981,-0.016332,0.000000,0
161,8.060000,-104.738572,0.066383,0.316895,13.885643,-0.000131,0.000125,0.072895,0.002287,-0.004528,-1.621309,-0.000853,-0.002389,-0.724734,0.689024,1,12.255969,96.904457,34.403824,46,54,43,47.666666666666664,9,49.434970,-0.015536,0.000000,0
162,8.110000,-104.772545,-0.627074,0.316877,13.885902,-0.006999,0.000279,0.070856,0.002105,-0.004524,-1.617738,-0.000910,-0.002323,-0.723503,0.690317,1,12.645821,96.491791,34.415829,49,58,44,50.333333333333336,10,49.434962,-0.015033,0.000000,0
163,8.160000,-104.803999,-1.320658,0.316878,13.885978,-0.004388,0.000358,0.071550,0.001690,-0.004515,-1.614198,-0.001046,-0.002171,-0.722280,0.691596,1,12.899401,96.709488,34.381855,60,74,53,62.333333333333336,10,49.435004,-0.015367,0.000000,0
164,8.210000,-104.833160,-2.014341,0.316898,13.885925,0.012575,0.000428,0.070282,0.001985,-0.004501,-1.610667,-0.000935,-0.002275,-0.721058,0.692870,1,13.328238,96.335480,34.454579,62,76,54,64.0,10,49.435004,-0.015023,0.000000,0
165,8.260000,-104.860021,-2.708116,0.316922,13.885983,0.005281,0.000325,0.068081,0.002493,-0.004490,-1.607229,-0.000751,-0.002456,-0.719865,0.694109,1,13.470431,97.263023,34.425012,61,74,54,63.0,10,49.434981,-0.014403,0.000000,0
166,8.310000,-104.884257,-3.401995,0.316937,13.886125,-0.010329,0.000141,0.064417,0.002206,-0.004487,-1.603932,-0.000845,-0.002353,-0.718720,0.695295,1,13.181453,96.759819,34.431478,59,72,53,61.333333333333336,10,49.435000,-0.013706,0.000000,0
167,8.360000,-104.906152,-4.095957,0.316944,13.886197,-0.001086,0.000089,0.061214,0.001858,-0.004488,-1.600821,-0.000963,-0.002230,-0.717638,0.696412,1,12.798787,96.127159,34.423457,54,66,49,56.333333333333336,10,49.435012,-0.013131,0.000000,0
168,8.410000,-104.926136,-4.789980,0.316945,13.886261,0.005053,0.000087,0.057715,0.002070,-0.004490,-1.597876,-0.000887,-0.002307,-0.716612,0.697468,1,12.410145,96.435074,34.353050,48,57,44,49.666666666666664,10,49.435003,-0.012234,0.000000,0
169,8.460000,-104.944088,-5.484064,0.316938,13.886409,-0.008658,0.000015,0.055866,0.001907,-0.004493,-1.595059,-0.000942,-0.002252,-0.715629,0.698476,1,12.015756,96.060333,34.393091,40,45,38,41.0,10,49.435002,-0.011849,0.000000,0
170,8.510000,-104.959927,-6.178205,0.316928,13.886483,-0.006556,0.000016,0.052226,0.001415,-0.004497,-1.592370,-0.001112,-0.002078,-0.714690,0.699438,1,11.694046,95.083534,34.363458,36,39,35,36.666666666666664,10,49.435019,-0.011185,0.000000,0
171,8.560000,-104.974151,-6.872385,0.316921,13.886519,0.008025,0.000093,0.051844,0.001527,-0.004498,-1.589801,-0.001071,-0.002120,-0.713791,0.700355,1,11.366334,99.937202,34.446750,35,42,34,37.0,10,49.435023,-0.011099,0.000000,0
172,8.610000,-104.986755,-7.566595,0.316919,13.886522,0.001595,0.000104,0.052852,0.001809,-0.004497,-1.587195,-0.000969,-0.002222,-0.712877,0.701285,1,11.025273,99.245827,34.388791,27,33,28,29.333333333333332,10,49.435010,-0.011212,0.000000,0
173,8.660000,-104.997328,-8.260841,0.316917,13.886563,-0.007242,0.000075,0.052039,0.001532,-0.004497,-1.584572,-0.001063,-0.002124,-0.711957,0.702219,1,10.877259,98.549965,34.437215,30,37,30,32.333333333333336,10,49.435025,-0.011126,0.000000,0
174,8.710000,-105.006044,-8.955114,0.316919,13.886616,0.004018,0.000101,0.048000,0.001456,-0.004497,-1.582087,-0.001087,-0.002098,-0.711084,0.703103,2,10.624645,97.859184,34.429720,38,45,35,39.333333333333336,10,49.435019,-0.010267,0.000000,0
175,8.760000,-105.013235,-9.649410,0.316923,13.886735,0.003852,0.000098,0.042777,0.001751,-0.004495,-1.579847,-0.000980,-0.002204,-0.710296,0.703899,2,10.495116,97.163498,34.404231,38,43,35,38.666666666666664,10,49.435007,-0.008991,0.000000,0
176,8.810000,-105.018787,-10.343730,0.316924,13.886903,-0.012195,0.000031,0.037219,0.001443,-0.004495,-1.577871,-0.001087,-0.002096,-0.709600,0.704600,2,10.386249,96.473846,34.455619,38,42,34,38.0,10,49.435012,-0.007827,0.000000,0
177,8.860000,-105.022879,-11.038065,0.316923,13.886992,-0.007786,0.000019,0.031801,0.000846,-0.004496,-1.576173,-0.001295,-0.001885,-0.709002,0.705202,2,10.509686,95.778412,34.405180,54,59,46,53.0,10,49.435025,-0.006808,0.000000,0
178,8.910000,-105.026070,-11.732410,0.316922,13.887081,0.004806,0.000039,0.027036,0.000885,-0.004496,-1.574735,-0.001280,-0.001900,-0.708495,0.705712,2,10.499475,95.083580,34.429617,60,63,51,58.0,10,49.435028,-0.005705,0.000000,0
179,8.960000,-105.028458,-12.426761,0.316921,13.887133,-0.003705,0.000025,0.026509,0.000920,-0.004495,-1.573420,-0.001267,-0.001913,-0.708031,0.706177,2,10.556075,95.528236,34.469371,80,75,69,74.66666666666667,10,49.435028,-0.005573,0.000000,0
180,9.010000,-105.029771,-13.121117,0.316920,13.887145,-0.007570,0.000013,0.024562,0.000527,-0.004496,-1.572143,-0.001404,-0.001775,-0.707581,0.706629,2,10.792768,99.768478,34.452959,71,67,61,66.33333333333333,10,49.435040,-0.005257,0.000000,0
181,9.060000,-105.030325,-13.815474,0.316920,13.887154,0.006907,0.000031,0.025118,0.000542,-0.004495,-1.570920,-0.001398,-0.001781,-0.707148,0.707062,2,10.056838,99.790092,34.483243,71,66,61,66.0,9,49.435041,-0.005437,0.000000,0
182,9.110000,-105.030188,-14.509831,0.316921,13.887154,0.005837,0.000034,0.022810,0.000975,-0.004494,-1.569725,-0.001243,-0.001934,-0.706725,0.707484,2,11.348794,99.987587,34.474322,70,66,61,65.66666666666667,9,49.435033,-0.004747,0.000000,0
183,9.160000,-105.029097,-15.204189,0.316921,13.887199,-0.008534,0.000005,0.022404,0.000786,-0.004494,-1.568605,-0.001309,-0.001868,-0.706329,0.707880,2,10.852239,99.421852,34.508221,64,61,56,60.333333333333336,9,49.435038,-0.004760,0.000000,0
184,9.210000,-105.027107,-15.898546,0.316921,13.887198,-0.001523,0.000008,0.020396,0.000479,-0.004495,-1.567539,-0.001417,-0.001761,-0.705952,0.708256,2,11.456787,99.947891,34.534317,60,57,53,56.666666666666664,9,49.435040,-0.004414,0.000000,0
185,9.260000,-105.024588,-16.592902,0.316922,13.887208,0.006947,0.000023,0.018695,0.000725,-0.004494,-1.566580,-0.001329,-0.001848,-0.705612,0.708595,2,11.755535,99.658432,34.610058,55,53,49,52.333333333333336,9,49.435040,-0.003948,0.000000,0
186,9.310000,-105.021413,-17.287256,0.316922,13.887256,-0.005394,0.000003,0.015867,0.000753,-0.004494,-1.565722,-0.001318,-0.001859,-0.705308,0.708897,2,11.949949,99.868164,34.583350,48,47,44,46.333333333333336,9,49.435034,-0.003270,0.000000,0
187,9.360000,-105.017414,-17.981607,0.316921,13.887267,-0.009810,-0.000004,0.008079,0.000272,-0.004495,-1.565131,-0.001488,-0.001689,-0.705099,0.709105,2,12.097938,99.997658,34.574534,46,46,42,44.666666666666664,9,49.435037,-0.001662,0.000000,0
188,9.410000,-105.013091,-18.675960,0.316920,13.887347,-0.000388,-0.000009,-0.005423,0.000100,-0.004495,-1.565099,-0.001549,-0.001629,-0.705088,0.709116,2,12.252783,99.988655,34.568348,45,45,42,44.0,9,49.435027,0.001330,0.000000,0
189,9.460000,-105.009064,-19.370315,0.316919,13.887322,-0.006960,0.000009,-0.013142,-0.000038,-0.004495,-1.565621,-0.001599,-0.001580,-0.705273,0.708933,2,12.380324,99.843506,34.564306,47,47,43,45.666666666666664,8,49.435051,0.002996,0.000000,0
190,9.510000,-105.005471,-20.064670,0.316920,13.887278,-0.013860,0.000029,-0.011852,-0.000684,-0.004494,-1.566269,-0.001828,-0.001351,-0.705503,0.708703,2,12.504842,99.859802,34.607500,53,52,48,51.0,8,49.435045,0.002493,0.000000,0
191,9.560000,-105.002414,-20.759028,0.316921,13.887311,0.003541,0.000009,-0.008617,-0.000924,-0.004494,-1.566772,-0.001913,-0.001266,-0.705681,0.708526,2,12.755852,99.879044,34.583805,56,53,50,53.0,8,49.435036,0.001709,0.000000,0
192,9.610000,-104.999973,-21.453389,0.316922,13.887304,0.013752,0.000000,-0.005202,-0.000332,-0.004494,-1.567109,-0.001703,-0.001475,-0.705800,0.708407,2,13.003440,99.944885,34.660461,57,55,51,54.333333333333336,8,49.435045,0.001119,0.000000,0
193,9.660000,-104.997675,-22.147751,0.316922,13.887328,0.000018,-0.000006,-0.003622,-0.000010,-0.004494,-1.567310,-0.001590,-0.001588,-0.705871,0.708336,2,13.306623,99.452225,34.551879,58,55,51,54.666666666666664,8,49.435041,0.000834,0.000000,0
194,9.710000,-104.995274,-22.842113,0.316921,13.887323,-0.002307,-0.000002,-0.002034,-0.000186,-0.004494,-1.567443,-0.001652,-0.001526,-0.705919,0.708289,2,8.746680,99.558289,34.509445,58,56,52,55.333333333333336,8,49.435044,0.000342,0.000000,0
195,9.760000,-104.993003,-23.536476,0.316921,13.887332,0.007933,-0.000004,-0.003014,0.000042,-0.004495,-1.567566,-0.001572,-0.001606,-0.705962,0.708246,2,12.973586,99.973373,34.503210,59,56,52,55.666666666666664,8,49.435044,0.000637,0.000000,0
196,9.810000,-104.990867,-24.230839,0.316921,13.887329,-0.001464,-0.000001,-0.005520,0.000251,-0.004495,-1.567783,-0.001498,-0.001680,-0.706039,0.708170,2,12.695964,99.753281,34.515291,60,57,53,56.666666666666664,8,49.435043,0.001301,0.000000,0
197,9.860000,-104.988689,-24.925202,0.316921,13.887301,-0.011908,0.000011,-0.008090,-0.000210,-0.004494,-1.568127,-0.001661,-0.001517,-0.706161,0.708048,2,12.848837,99.970970,34.439548,62,58,54,58.0,8,49.435047,0.001741,0.000000,0
198,9.910000,-104.986793,-25.619564,0.316921,13.887313,0.000337,0.000000,-0.008927,-0.000498,-0.004494,-1.568564,-0.001763,-0.001415,-0.706316,0.707893,2,12.996449,99.722404,34.417210,63,60,55,59.333333333333336,8,49.435040,0.001835,0.000000,0
199,9.960000,-104.985486,-26.313928,0.316921,13.887302,0.006405,-0.000001,-0.005926,-0.000215,-0.004494,-1.568942,-0.001664,-0.001514,-0.706449,0.707760,2,13.552985,99.959427,34.375717,64,61,56,60.333333333333336,8,49.435045,0.001270,0.000000,0
200,10.010000,-104.984354,-27.008293,0.316921,13.887326,-0.003998,-0.000001,-0.004856,-0.000189,-0.004495,-1.569192,-0.001655,-0.001524,-0.706538,0.707672,2,13.748195,99.896996,34.274428,65,61,57,61.0,8,49.435043,0.001075,0.000000,0
201,10.060000,-104.983273,-27.702659,0.316921,13.887331,-0.000125,0.000001,-0.001743,-0.000376,-0.004495,-1.569353,-0.001721,-0.001457,-0.706595,0.707615,2,12.966379,99.987907,34.158057,66,62,57,61.666666666666664,8,49.435042,0.000247,0.000000,0
202,10.110000,-104.982397,-28.397025,0.316921,13.887331,0.010281,0.000003,-0.001643,-0.000005,-0.004494,-1.569427,-0.001590,-0.001588,-0.706621,0.707589,2,12.808246,99.995186,34.166743,66,62,57,61.666666666666664,8,49.435046,0.000357,0.000000,0
203,10.160000,-104.981601,-29.091391,0.316921,13.887332,-0.000431,0.000001,-0.000810,0.000252,-0.004494,-1.569489,-0.001499,-0.001679,-0.706642,0.707567,2,13.234838,99.995415,34.042415,66,62,57,61.666666666666664,8,49.435042,0.000239,0.000000,0
204,10.210000,-104.980586,-29.785756,0.316921,13.887315,-0.008297,0.000005,-0.003524,-0.000073,-0.004494,-1.569587,-0.001614,-0.001564,-0.706677,0.707533,2,13.503085,99.992729,33.994110,66,62,58,62.0,8,49.435046,0.000761,0.000000,0
205,10.260000,-104.979670,-30.480122,0.316921,13.887330,0.001919,-0.000003,-0.006119,-0.000211,-0.004494,-1.569842,-0.001663,-0.001515,-0.706768,0.707442,2,13.375690,99.976265,33.775440,67,63,58,62.666666666666664,8,49.435042,0.001281,0.000000,0
206,10.310000,-104.979165,-31.174488,0.316921,13.887315,0.002444,-0.000001,-0.005219,-0.000019,-0.004494,-1.570139,-0.001595,-0.001583,-0.706872,0.707337,2,13.530231,99.981918,33.528826,71,67,61,66.33333333333333,8,49.435046,0.001159,0.000000,0
207,10.360000,-104.978797,-31.868854,0.316921,13.887332,-0.006588,0.000000,-0.002075,-0.000201,-0.004494,-1.570312,-0.001660,-0.001518,-0.706934,0.707276,2,13.171979,99.976364,33.242694,71,67,61,66.33333333333333,8,49.435043,0.000414,0.000000,0
208,10.410000,-104.978448,-32.563220,0.316921,13.887335,0.001935,0.000000,0.000144,-0.000351,-0.004494,-1.570346,-0.001713,-0.001465,-0.706946,0.707264,2,13.018013,99.991974,32.866412,71,67,61,66.33333333333333,8,49.435043,-0.000140,0.000000,0
209,10.460000,-104.978206,-33.257587,0.316921,13.887338,0.009211,0.000002,-0.004050,0.000069,-0.004494,-1.570437,-0.001564,-0.001614,-0.706978,0.707232,2,12.756469,99.992058,32.532007,71,67,61,66.33333333333333,8,49.435044,0.000964,0.000000,0
210,10.510000,-104.978066,-33.951954,0.316921,13.887330,-0.004608,0.000003,-0.004774,0.000148,-0.004494,-1.570676,-0.001537,-0.001641,-0.707062,0.707148,2,12.487240,99.997055,31.991161,72,67,62,67.0,8,49.435044,0.001098,0.000000,0
211,10.560000,-104.977900,-34.646320,0.316921,13.887310,-0.008262,0.000006,-0.005778,-0.000284,-0.004494,-1.570935,-0.001689,-0.001488,-0.707154,0.707056,2,12.351036,98.230797,31.610161,72,67,62,67.0,8,49.435046,0.001194,0.000000,0
212,10.610000,-104.978069,-35.340686,0.316921,13.887330,0.005739,-0.000004,-0.001914,-0.000307,-0.004494,-1.571137,-0.001698,-0.001480,-0.707226,0.706984,2,12.224125,98.322952,31.572240,72,68,62,67.33333333333333,8,49.435042,0.000292,0.000000,0
213,10.660000,-104.978478,-36.035052,0.316921,13.887328,0.004955,-0.000004,-0.002103,0.000074,-0.004494,-1.571220,-0.001563,-0.001615,-0.707255,0.706955,2,12.100781,99.885269,31.567026,72,68,62,67.33333333333333,8,49.435044,0.000537,0.000000,0
214,10.710000,-104.978794,-36.729419,0.316921,13.887329,-0.006400,-0.000001,-0.002045,-0.000061,-0.004494,-1.571321,-0.001611,-0.001567,-0.707291,0.706919,2,12.215138,99.991730,31.755684,73,68,62,67.66666666666667,8,49.435046,0.000444,0.000000,0
215,10.760000,-104.979119,-37.423785,0.316921,13.887335,0.001218,-0.000002,-0.000845,-0.000227,-0.004494,-1.571394,-0.001670,-0.001508,-0.707316,0.706893,2,12.131220,99.974709,32.048661,73,68,62,67.66666666666667,8,49.435043,0.000086,0.000000,0
216,10.810000,-104.979667,-38.118151,0.316921,13.887322,0.007864,0.000003,0.001310,0.000103,-0.004494,-1.571382,-0.001553,-0.001625,-0.707312,0.706898,2,12.461014,99.986580,32.121359,73,68,62,67.66666666666667,8,49.435047,-0.000283,0.000000,0
217,10.860000,-104.980139,-38.812517,0.316921,13.887337,-0.003018,-0.000001,0.001838,0.000205,-0.004494,-1.571291,-0.001517,-0.001661,-0.707280,0.706930,2,12.527833,99.469627,32.158712,73,68,62,67.66666666666667,8,49.435043,-0.000340,0.000000,0
218,10.910000,-104.980351,-39.506884,0.316921,13.887325,-0.004543,0.000002,0.000742,-0.000074,-0.004494,-1.571222,-0.001616,-0.001562,-0.707256,0.706954,2,12.790438,98.777321,32.163614,73,68,62,67.66666666666667,8,49.435046,-0.000201,0.000000,0
219,10.960000,-104.980578,-40.201251,0.316921,13.887340,0.004686,-0.000001,-0.003265,0.000007,-0.004494,-1.571293,-0.001587,-0.001591,-0.707280,0.706929,2,12.477719,98.333458,32.159032,73,68,62,67.66666666666667,8,49.435044,0.000736,0.000000,0
220,11.010000,-104.981035,-40.895617,0.316921,13.887327,-0.001112,0.000001,-0.001815,0.000118,-0.004494,-1.571439,-0.001548,-0.001630,-0.707332,0.706878,2,12.132089,97.383476,32.119727,73,68,62,67.66666666666667,8,49.435044,0.000426,0.000000,0
221,11.060000,-104.981455,-41.589983,0.316921,13.887332,-0.007061,0.000002,-0.000225,-0.000175,-0.004494,-1.571477,-0.001651,-0.001527,-0.707346,0.706864,2,11.921419,96.688789,32.069574,73,68,63,68.0,8,49.435046,0.000009,0.000000,0
222,11.110000,-104.981894,-42.284350,0.316921,13.887337,0.004192,-0.000001,0.001122,-0.000237,-0.004494,-1.571451,-0.001673,-0.001504,-0.707337,0.706873,2,11.676476,99.981918,32.186907,73,68,63,68.0,8,49.435044,-0.000326,0.000000,0
223,11.160000,-104.982510,-42.978716,0.316921,13.887313,0.008448,0.000004,0.004769,0.000174,-0.004494,-1.571304,-0.001528,-0.001650,-0.707284,0.706926,2,11.368546,99.613457,32.167645,73,68,62,67.66666666666667,8,49.435046,-0.001027,0.000000,0
224,11.210000,-104.982863,-43.673082,0.316921,13.887331,-0.003334,-0.000004,0.003513,0.000273,-0.004494,-1.571076,-0.001493,-0.001685,-0.707204,0.707006,2,11.281638,99.904495,32.342709,73,68,62,67.66666666666667,8,49.435044,-0.000676,0.000000,0
225,11.260000,-104.982910,-44.367448,0.316921,13.887327,-0.003083,-0.000002,0.003382,0.000017,-0.004494,-1.570911,-0.001583,-0.001595,-0.707145,0.707065,2,11.165332,99.975777,32.495434,72,68,62,67.33333333333333,8,49.435045,-0.000793,0.000000,0
226,11.310000,-104.982946,-45.061815,0.316921,13.887331,0.005625,0.000001,0.002154,0.000165,-0.004494,-1.570776,-0.001531,-0.001647,-0.707098,0.707112,2,10.957324,99.816246,32.539824,72,68,62,67.33333333333333,8,49.435046,-0.000448,0.000000,0
227,11.360000,-104.982954,-45.756181,0.316921,13.887335,-0.002206,0.000000,0.001664,0.000268,-0.004494,-1.570686,-0.001494,-0.001684,-0.707066,0.707144,2,11.179558,99.838486,32.741976,72,68,62,67.33333333333333,8,49.435044,-0.000283,0.000000,0
228,11.410000,-104.982746,-46.450548,0.316921,13.887327,-0.007491,0.000002,0.000787,-0.000070,-0.004494,-1.570622,-0.001614,-0.001564,-0.707044,0.707166,2,10.956859,99.986374,32.931447,72,67,62,67.0,8,49.435047,-0.000187,0.000000,0
229,11.460000,-104.982492,-47.144914,0.316921,13.887336,0.002325,-0.000001,-0.003931,-0.000155,-0.004494,-1.570705,-0.001644,-0.001534,-0.707073,0.707137,2,10.710297,99.925697,33.045102,72,68,62,67.33333333333333,8,49.435042,0.000864,0.000000,0
230,11.510000,-104.982550,-47.839281,0.316921,13.887323,0.002426,0.000001,-0.002704,0.000021,-0.004494,-1.570896,-0.001582,-0.001596,-0.707140,0.707070,2,10.534284,99.967781,33.111600,73,68,62,67.66666666666667,8,49.435046,0.000606,0.000000,0
231,11.560000,-104.982655,-48.533647,0.316921,13.887333,-0.005992,0.000001,-0.002134,-0.000121,-0.004494,-1.571004,-0.001632,-0.001546,-0.707179,0.707031,2,10.420439,99.912849,33.176456,73,68,62,67.66666666666667,8,49.435046,0.000474,0.000000,0
232,11.610000,-104.982759,-49.228014,0.316921,13.887333,0.000270,0.000000,-0.001178,-0.000308,-0.004494,-1.571085,-0.001698,-0.001480,-0.707207,0.707003,2,10.302067,99.923309,33.227739,73,68,62,67.66666666666667,8,49.435044,0.000168,0.000000,0
233,11.660000,-104.983048,-49.922381,0.316921,13.887333,0.007837,0.000001,-0.002287,0.000005,-0.004494,-1.571171,-0.001588,-0.001590,-0.707237,0.706973,2,10.239499,99.962349,33.378501,73,68,63,68.0,8,49.435047,0.000527,0.000000,0
234,11.710000,-104.983432,-50.616747,0.316921,13.887335,-0.002227,-0.000000,-0.000895,0.000128,-0.004494,-1.571255,-0.001544,-0.001634,-0.707267,0.706943,2,10.002573,99.961479,33.286353,73,68,63,68.0,8,49.435044,0.000231,0.000000,0
235,11.760000,-104.983738,-51.311114,0.316921,13.887339,-0.004104,0.000001,0.003636,-0.000139,-0.004494,-1.571178,-0.001638,-0.001539,-0.707240,0.706970,2,9.884912,99.980667,33.277958,73,68,63,68.0,8,49.435045,-0.000898,0.000000,0
236,11.810000,-104.983982,-52.005481,0.316921,13.887332,0.007655,0.000003,0.003951,0.000022,-0.004494,-1.570971,-0.001581,-0.001597,-0.707167,0.707043,2,9.737064,99.972427,33.208021,73,68,62,67.66666666666667,8,49.435046,-0.000881,0.000000,0
237,11.860000,-104.984204,-52.699847,0.316922,13.887316,0.004331,0.000003,0.005997,0.000376,-0.004494,-1.570727,-0.001456,-0.001722,-0.707080,0.707130,2,9.688354,99.996559,33.061944,72,67,62,67.0,8,49.435044,-0.001249,0.000000,0
238,11.910000,-104.984016,-53.394213,0.316921,13.887323,-0.007047,-0.000003,0.001712,0.000245,-0.004494,-1.570519,-0.001502,-0.001676,-0.707007,0.707203,2,9.689453,99.989616,33.134023,72,67,61,66.66666666666667,8,49.435044,-0.000282,0.000000,0
239,11.960000,-104.983668,-54.088579,0.316921,13.887334,-0.001963,-0.000005,0.001902,-0.000047,-0.004494,-1.570451,-0.001605,-0.001573,-0.706983,0.707227,2,9.648331,99.987473,33.102133,69,65,60,64.66666666666667,8,49.435044,-0.000492,0.000000,0
240,12.010000,-104.983391,-54.782946,0.316921,13.887339,0.003889,-0.000001,-0.002255,0.000121,-0.004494,-1.570458,-0.001546,-0.001632,-0.706985,0.707225,2,9.768374,99.988876,33.038788,69,65,60,64.66666666666667,8,49.435045,0.000578,0.000000,0
241,12.060000,-104.983191,-55.477313,0.316921,13.887337,-0.005825,0.000001,-0.001364,0.000026,-0.004494,-1.570567,-0.001580,-0.001598,-0.707024,0.707186,2,9.843514,99.982254,32.948363,70,65,60,65.0,8,49.435045,0.000318,0.000000,0
242,12.110000,-104.982976,-56.171679,0.316921,13.887335,-0.003700,0.000003,0.001169,-0.000288,-0.004494,-1.570564,-0.001691,-0.001487,-0.707023,0.707187,2,10.198751,99.978691,32.967361,70,65,60,65.0,8,49.435046,-0.000344,0.000000,0
243,12.160000,-104.982861,-56.866046,0.316921,13.887333,0.008567,0.000003,0.003235,-0.000088,-0.004494,-1.570448,-0.001620,-0.001558,-0.706982,0.707228,2,10.300438,99.986313,32.931732,69,65,60,64.66666666666667,8,49.435047,-0.000744,0.000000,0
244,12.210000,-104.982799,-57.560412,0.316922,13.887307,0.005344,0.000004,0.009289,0.000297,-0.004494,-1.570131,-0.001483,-0.001694,-0.706869,0.707340,2,10.500672,99.989075,32.944023,68,64,59,63.666666666666664,8,49.435043,-0.002011,0.000000,0
245,12.260000,-104.982412,-58.254777,0.316922,13.887282,0.000516,0.000007,0.022510,0.000322,-0.004494,-1.569313,-0.001474,-0.001704,-0.706580,0.707629,2,10.926193,99.965630,32.933188,64,61,56,60.333333333333336,8,49.435043,-0.005028,0.000000,0
246,12.310000,-104.981429,-58.949134,0.316924,13.887008,0.014775,0.000080,0.043738,0.000666,-0.004493,-1.567615,-0.001350,-0.001826,-0.705979,0.708229,2,11.000128,99.987236,32.981162,57,55,51,54.333333333333336,8,49.435059,-0.009744,0.000000,0
247,12.360000,-104.979212,-59.643462,0.316931,13.886383,0.023047,0.000198,0.062583,0.001710,-0.004488,-1.564884,-0.000976,-0.002195,-0.705010,0.709193,2,11.973373,99.992111,32.987767,44,44,41,43.0,8,49.435079,-0.013610,0.000000,0
248,12.410000,-104.974674,-60.337751,0.316939,13.885995,0.010008,0.000184,0.071405,0.002497,-0.004486,-1.561469,-0.000692,-0.002472,-0.703797,0.710397,2,11.500620,99.917709,32.966923,41,44,38,41.0,8,49.435057,-0.015327,0.000000,0
249,12.460000,-104.967348,-61.032003,0.316943,13.885722,0.003329,0.000181,0.077655,0.002682,-0.004487,-1.557724,-0.000622,-0.002539,-0.702466,0.711713,2,11.354120,99.958199,32.939663,52,62,46,53.333333333333336,8,49.435053,-0.016751,0.000000,0
250,12.510000,-104.957337,-61.726204,0.316948,13.885324,0.007564,0.000264,0.085340,0.002937,-0.004488,-1.553646,-0.000526,-0.002629,-0.701013,0.713144,2,10.804540,99.992439,32.990844,51,63,44,52.666666666666664,8,49.435040,-0.018389,0.000000,0
251,12.560000,-104.944536,-62.420332,0.316954,13.884653,0.004261,0.000346,0.102574,0.003165,-0.004487,-1.548941,-0.000438,-0.002710,-0.699333,0.714791,2,10.472885,99.863235,33.000598,39,44,37,40.0,8,49.435031,-0.022164,0.000000,0
252,12.610000,-104.928342,-63.114339,0.316962,13.883315,0.008093,0.000541,0.130517,0.003318,-0.004484,-1.543068,-0.000374,-0.002764,-0.697230,0.716842,2,10.351115,99.854591,33.074590,57,69,49,58.333333333333336,7,49.435086,-0.028377,0.000000,0
253,12.660000,-104.907898,-63.808132,0.316986,13.881006,0.026241,0.000966,0.158537,0.004169,-0.004473,-1.535761,-0.000054,-0.003057,-0.694605,0.719384,2,10.198107,99.669533,33.170666,46,53,42,47.0,7,49.435151,-0.034367,0.000000,0
254,12.710000,-104.882141,-64.501623,0.317021,13.878663,0.028715,0.001243,0.179362,0.005587,-0.004458,-1.527239,0.000477,-0.003542,-0.691531,0.722338,2,10.037954,99.880699,33.286762,44,38,38,40.0,7,49.435077,-0.038592,0.000000,0
255,12.760000,-104.849873,-65.194752,0.317045,13.877461,0.010765,0.001094,0.186991,0.006454,-0.004455,-1.518029,0.000808,-0.003837,-0.688196,0.725514,2,9.979802,99.764908,33.351203,49,51,43,47.666666666666664,7,49.434941,-0.040034,0.000000,0
256,12.810000,-104.810813,-65.887476,0.317054,13.876233,0.002811,0.001180,0.196366,0.006555,-0.004462,-1.508460,0.000861,-0.003870,-0.684717,0.728798,2,10.072106,99.747055,33.427466,61,56,54,57.0,7,49.434835,-0.042237,0.000000,0
257,12.860000,-104.765097,-66.579734,0.317060,13.874791,0.009372,0.001416,0.214031,0.006773,-0.004467,-1.498208,0.000959,-0.003942,-0.680972,0.732298,2,10.129560,99.944084,33.450622,80,75,71,75.33333333333333,7,49.434930,-0.046077,0.000000,0
258,12.910000,-104.712251,-67.271355,0.317076,13.871912,0.010531,0.001800,0.238780,0.007170,-0.004464,-1.486866,0.001128,-0.004069,-0.676807,0.736148,2,10.241230,99.924187,33.413723,94,87,83,88.0,7,49.434891,-0.051429,0.000000,0
259,12.960000,-104.651181,-67.962007,0.317130,13.866271,0.011800,0.002419,0.253209,0.007652,-0.004437,-1.474515,0.001341,-0.004214,-0.672247,0.740314,2,10.398126,99.836319,33.426451,94,87,82,87.66666666666667,7,49.434682,-0.054492,0.000000,0
260,13.010000,-104.581285,-68.651738,0.317153,13.866717,0.015894,0.001960,0.258469,0.008250,-0.004422,-1.461709,0.001596,-0.004400,-0.667492,0.744602,2,10.642640,99.921944,33.474581,93,88,78,86.33333333333333,6,49.434208,-0.055424,0.000000,0
261,13.060000,-104.502368,-69.340559,0.317128,13.864048,0.004691,0.002328,0.257560,0.008731,-0.004445,-1.448851,0.001796,-0.004558,-0.662690,0.748878,2,10.908583,99.837418,33.436297,110,107,96,104.33333333333333,6,49.436709,-0.054871,0.000000,0
262,13.110000,-104.414661,-70.027785,0.317197,13.857409,-0.004113,0.002402,0.265840,0.008509,-0.004401,-1.435827,0.001757,-0.004456,-0.657800,0.753177,2,11.044871,99.967758,33.329081,92,88,80,86.66666666666667,6,49.433686,-0.057071,0.000000,0
263,13.160000,-104.317938,-70.713993,0.317160,13.860816,0.004558,0.001568,0.283542,0.008388,-0.004440,-1.422108,0.001729,-0.004419,-0.652618,0.757672,2,11.114516,99.811905,33.257138,93,87,81,87.0,5,49.434715,-0.061114,0.000000,0
264,13.210000,-104.211790,-71.398796,0.317112,13.859409,0.018847,0.002307,0.304197,0.008938,-0.004469,-1.407402,0.001962,-0.004595,-0.647028,0.762450,2,11.334970,99.896362,33.226925,89,85,79,84.33333333333333,5,49.434323,-0.065451,0.000000,0
265,13.260000,-104.095521,-72.081225,0.317232,13.836870,0.015852,0.005840,0.316980,0.009753,-0.004381,-1.391838,0.002338,-0.004807,-0.641074,0.767461,2,11.231940,99.925964,33.128600,101,98,88,95.66666666666667,5,49.433192,-0.068233,0.000000,0
266,13.310000,-103.968515,-72.760822,0.317428,13.831157,0.011013,0.003814,0.320500,0.010230,-0.004253,-1.375900,0.002602,-0.004891,-0.634937,0.772544,2,11.131406,99.982018,33.158030,89,85,78,84.0,5,49.430647,-0.068985,0.000000,0
267,13.360000,-103.830490,-73.439052,0.317275,13.846351,0.008802,0.000056,0.324907,0.010489,-0.004394,-1.359690,0.002697,-0.005005,-0.628654,0.777665,2,11.099082,99.945358,33.165939,84,79,73,78.66666666666667,6,49.434641,-0.069450,0.000000,0
268,13.410000,-103.681501,-74.114668,0.317173,13.831959,0.003954,0.003276,0.330283,0.010547,-0.004464,-1.343281,0.002739,-0.005029,-0.622252,0.782796,2,10.950098,99.955460,33.193964,91,88,81,86.66666666666667,6,49.433256,-0.071131,0.000000,0
269,13.460000,-103.521522,-74.786574,0.317314,13.808988,0.000053,0.006029,0.341405,0.010475,-0.004351,-1.326551,0.002787,-0.004939,-0.615682,0.787974,2,10.857481,99.919113,33.176413,93,87,79,86.33333333333333,6,49.434621,-0.073868,0.000000,0
270,13.510000,-103.350075,-75.456619,0.317117,13.842207,0.009375,-0.000904,0.353436,0.010668,-0.004513,-1.309131,0.002858,-0.005037,-0.608795,0.793306,2,10.873693,99.884499,33.308962,100,94,85,93.0,7,49.433680,-0.075127,0.000000,0
271,13.560000,-103.166939,-76.123904,0.316915,13.837906,0.011373,0.002415,0.355741,0.011133,-0.004658,-1.291455,0.003044,-0.005210,-0.601758,0.798656,2,10.872126,99.965446,33.388976,93,89,78,86.66666666666667,8,49.435013,-0.075645,0.000000,0
272,13.610000,-102.972114,-76.786622,0.317102,13.811236,0.004488,0.007291,0.347086,0.011436,-0.004513,-1.274013,0.003254,-0.005215,-0.594770,0.803872,2,10.630486,99.866142,33.419395,108,103,91,100.66666666666667,8,49.434364,-0.074620,0.000000,0
273,13.660000,-102.765742,-77.445703,0.317252,13.821050,-0.001006,0.003471,0.349908,0.011317,-0.004428,-1.256701,0.003276,-0.005117,-0.587790,0.808991,2,10.430125,99.919334,33.478631,179,174,172,175.0,8,49.429481,-0.074952,0.000000,0
274,13.710000,-102.547800,-78.102218,0.317076,13.839216,0.002684,0.000948,0.359748,0.011224,-0.004585,-1.238970,0.003238,-0.005125,-0.580595,0.814170,2,10.246007,99.984886,33.549170,186,183,181,183.33333333333334,8,49.434343,-0.076547,0.000000,0
275,13.760000,-102.318540,-78.753900,0.317188,13.799969,0.006042,0.009440,0.367545,0.011337,-0.004488,-1.220837,0.003359,-0.005088,-0.573189,0.819400,2,10.262592,99.966484,33.577626,182,176,172,176.66666666666666,9,49.436927,-0.079641,0.000000,0
276,13.810000,-102.077660,-79.400266,0.317451,13.798512,0.009804,0.006533,0.375823,0.011647,-0.004296,-1.202254,0.003588,-0.005065,-0.565551,0.824690,2,10.240772,99.912476,33.616782,155,150,147,150.66666666666666,9,49.433520,-0.081148,0.000000,0
277,13.860000,-101.824313,-80.043063,0.317303,13.826853,0.013202,0.000152,0.377941,0.012164,-0.004447,-1.183392,0.003808,-0.005238,-0.557746,0.829986,2,10.274236,99.998512,33.786664,184,182,183,183.0,9,49.432409,-0.080395,0.000000,0
278,13.910000,-101.558792,-80.680937,0.317201,13.808449,0.004530,0.005366,0.365429,0.012512,-0.004546,-1.164871,0.003974,-0.005339,-0.550035,0.835115,2,10.399518,99.951492,33.952035,190,190,192,190.66666666666666,9,49.436603,-0.078458,0.000000,0
279,13.960000,-101.281826,-81.313028,0.317309,13.803095,-0.005394,0.005420,0.365311,0.012269,-0.004479,-1.146706,0.003939,-0.005209,-0.542429,0.840076,2,10.469858,99.920898,34.070856,196,186,180,187.33333333333334,9,49.433676,-0.078708,0.000000,0
280,14.010000,-100.993376,-81.940044,0.317325,13.812271,-0.002802,0.002724,0.373584,0.011891,-0.004474,-1.128339,0.003828,-0.005069,-0.534692,0.845023,2,10.644955,99.861343,34.334593,193,192,193,192.66666666666666,9,49.428648,-0.080197,0.000000,0
281,14.060000,-100.693135,-82.562614,0.317085,13.822495,0.004753,0.002754,0.381716,0.011850,-0.004636,-1.109438,0.003816,-0.005091,-0.526682,0.850039,2,8.725771,99.981255,34.553823,178,179,180,179.0,9,49.433167,-0.081720,0.000000,0
282,14.110000,-100.381575,-83.178335,0.317200,13.796354,0.006316,0.008056,0.380287,0.012049,-0.004502,-1.090482,0.003984,-0.005049,-0.518602,0.854992,2,11.725520,99.876991,34.730711,172,172,173,172.33333333333334,9,49.434545,-0.081947,0.000000,0
283,14.160000,-100.058303,-83.787918,0.317285,13.805379,0.004392,0.004508,0.372820,0.012232,-0.004434,-1.071707,0.004127,-0.005029,-0.510552,0.859822,2,11.926106,99.996323,34.986074,190,182,178,183.33333333333334,9,49.433402,-0.080061,0.000000,0
284,14.210000,-99.723229,-84.392263,0.317107,13.827409,0.001348,0.000796,0.370094,0.012251,-0.004592,-1.053197,0.004141,-0.005064,-0.502573,0.864510,2,12.958559,99.851295,35.305281,164,156,151,157.0,9,49.432503,-0.078703,0.000000,0
285,14.260000,-99.377227,-84.990082,0.317101,13.804547,-0.004002,0.007021,0.365078,0.012039,-0.004596,-1.034929,0.004095,-0.004975,-0.494656,0.869065,2,15.302011,99.994019,35.553819,180,174,170,174.66666666666666,9,49.435857,-0.078671,0.000000,0
286,14.310000,-99.020841,-85.580794,0.317288,13.797333,-0.003043,0.007156,0.373864,0.011682,-0.004442,-1.016518,0.004022,-0.004783,-0.486636,0.873582,2,13.372607,99.949486,35.751341,171,168,166,168.33333333333334,9,49.433914,-0.080867,0.000000,0
287,14.360000,-98.653226,-86.165642,0.317164,13.831628,0.009437,-0.000317,0.388106,0.011739,-0.004541,-0.997463,0.004068,-0.004802,-0.478291,0.878179,2,13.859498,99.989639,35.936114,162,156,153,157.0,9,49.432047,-0.082614,0.000000,0
288,14.410000,-98.274367,-86.743475,0.317090,13.804100,0.012915,0.007456,0.381571,0.012292,-0.004601,-0.978264,0.004345,-0.004919,-0.469837,0.882729,2,13.963937,99.996582,36.204277,166,160,157,161.0,9,49.437670,-0.082254,0.000000,0
289,14.460000,-97.884977,-87.312968,0.317302,13.800367,0.004694,0.006879,0.376111,0.012594,-0.004446,-0.959387,0.004560,-0.004878,-0.461484,0.887123,1,14.534570,99.979286,36.528798,187,181,179,182.33333333333334,9,49.433498,-0.080719,0.000000,0
290,14.510000,-97.484526,-87.875254,0.317339,13.811936,-0.003853,0.003235,0.360600,0.012503,-0.004451,-0.941058,0.004563,-0.004818,-0.453336,0.891315,1,14.847672,99.914246,36.745175,175,175,175,175.0,9,49.433512,-0.077250,0.000000,0
291,14.560000,-97.073493,-88.430923,0.317144,13.829295,-0.009819,0.000801,0.361004,0.011968,-0.004616,-0.923122,0.004330,-0.004732,-0.445325,0.895346,1,15.388044,99.811966,37.006921,168,163,161,164.0,9,49.432463,-0.076946,0.000000,0
292,14.610000,-96.652953,-88.978707,0.317146,13.805090,-0.009791,0.006912,0.359953,0.011338,-0.004571,-0.905225,0.004099,-0.004534,-0.437297,0.899297,1,15.549830,99.853363,37.222389,173,167,163,167.66666666666666,9,49.435312,-0.077642,0.000000,0
293,14.660000,-96.223127,-89.518514,0.317240,13.808638,-0.000107,0.004657,0.373870,0.010927,-0.004431,-0.886967,0.003984,-0.004345,-0.429070,0.903252,1,15.714088,99.827576,37.337737,178,178,178,178.0,9,49.428068,-0.080279,0.000000,0
294,14.710000,-95.782636,-90.051512,0.316956,13.836733,0.014570,-0.000304,0.373845,0.011318,-0.004623,-0.868234,0.004162,-0.004477,-0.420590,0.907230,1,16.105139,99.961830,37.569509,92,87,77,85.33333333333333,9,49.434011,-0.079415,0.000000,0
295,14.760000,-95.332396,-90.575934,0.316911,13.812122,0.009152,0.006904,0.361129,0.011844,-0.004653,-0.849962,0.004436,-0.004561,-0.412283,0.911034,1,16.437332,99.929581,37.762293,95,91,78,88.0,9,49.436747,-0.077578,0.000000,0
296,14.810000,-94.873135,-91.091398,0.317124,13.809698,-0.002068,0.006612,0.353241,0.011849,-0.004503,-0.832189,0.004509,-0.004454,-0.404171,0.914661,1,16.917114,99.985809,37.961029,92,88,79,86.33333333333333,9,49.433735,-0.075744,0.000000,0
297,14.860000,-94.404674,-91.598874,0.317213,13.825487,-0.003968,0.001926,0.358499,0.011484,-0.004466,-0.814540,0.004388,-0.004325,-0.396085,0.918193,1,17.351236,99.989960,38.101659,96,89,82,89.0,9,49.429963,-0.076470,0.000000,0
298,14.910000,-93.926775,-92.098774,0.317059,13.829048,0.001107,0.002654,0.364326,0.011307,-0.004614,-0.796508,0.004316,-0.004319,-0.387790,0.921727,1,17.941683,99.973885,38.381356,127,117,99,114.33333333333333,9,49.433403,-0.078088,0.000000,0
299,14.960000,-93.440689,-92.589076,0.317226,13.801266,0.003225,0.008409,0.367257,0.011316,-0.004470,-0.778298,0.004387,-0.004214,-0.379382,0.925220,1,18.323704,99.929848,38.509904,129,122,105,118.66666666666667,9,49.435320,-0.079253,0.000000,0
300,15.010000,-92.945582,-93.070479,0.317256,13.825034,0.007253,0.001802,0.366653,0.011481,-0.004430,-0.759977,0.004509,-0.004186,-0.370891,0.928656,1,18.851580,99.950546,38.666035,122,114,98,111.33333333333333,9,49.430940,-0.077888,0.000000,0
301,15.060000,-92.440945,-93.543448,0.317032,13.830880,0.003825,0.001719,0.350250,0.011720,-0.004617,-0.742113,0.004624,-0.004276,-0.362581,0.931931,1,19.337740,99.896133,38.793473,126,117,99,114.0,9,49.437891,-0.074671,0.000000,0
302,15.110000,-91.928363,-94.006992,0.317040,13.816403,-0.008703,0.005865,0.340065,0.011430,-0.004608,-0.724985,0.004526,-0.004181,-0.354587,0.935003,1,19.938917,99.597504,38.924923,118,109,93,106.66666666666667,9,49.435213,-0.073029,0.000000,0
303,15.160000,-91.408350,-94.461456,0.317154,13.818321,-0.010862,0.004734,0.344705,0.010717,-0.004485,-0.707983,0.004249,-0.003961,-0.346627,0.937985,1,20.350092,99.648041,39.014975,96,90,80,88.66666666666667,9,49.429634,-0.073782,0.000000,0
304,15.210000,-90.879910,-94.907854,0.316963,13.842022,0.003490,0.000404,0.355645,0.010502,-0.004611,-0.690525,0.004161,-0.003946,-0.338427,0.940975,1,20.908779,98.712105,39.164701,89,80,72,80.33333333333333,9,49.433610,-0.075911,0.000000,0
305,15.260000,-90.343838,-95.344976,0.316904,13.820328,0.009154,0.006847,0.356225,0.010819,-0.004647,-0.672758,0.004340,-0.003979,-0.330054,0.943944,1,21.606630,98.685448,39.259579,97,89,81,89.0,10,49.438957,-0.076659,0.000000,0
306,15.310000,-89.800755,-95.771810,0.317124,13.810526,0.006404,0.008232,0.352026,0.011136,-0.004465,-0.655062,0.004554,-0.003905,-0.321688,0.946827,1,22.279148,99.993187,39.505618,110,104,93,102.33333333333333,10,49.435058,-0.075600,0.000000,0
307,15.360000,-89.249867,-96.189153,0.317169,13.835110,0.003027,0.001410,0.345535,0.011236,-0.004443,-0.637674,0.004639,-0.003871,-0.313445,0.949587,1,22.766479,99.798035,39.586319,105,97,87,96.33333333333333,9,49.432396,-0.073176,0.000000,0
308,15.410000,-88.691327,-96.597363,0.317050,13.834225,-0.002323,0.002137,0.340491,0.011107,-0.004574,-0.620643,0.004590,-0.003874,-0.305347,0.952222,1,23.379478,99.728554,39.756767,98,92,81,90.33333333333333,9,49.433479,-0.072758,0.000000,0
309,15.460000,-88.126455,-96.995597,0.317130,13.813806,-0.006245,0.006907,0.340616,0.010751,-0.004521,-0.603686,0.004460,-0.003756,-0.297264,0.954778,1,24.124487,99.963928,39.853324,99,91,82,90.66666666666667,9,49.435847,-0.073484,0.000000,0
310,15.510000,-87.554905,-97.384251,0.317133,13.835863,0.004181,0.001854,0.352744,0.010508,-0.004492,-0.586366,0.004381,-0.003669,-0.288985,0.957317,1,24.705421,99.964066,39.988130,100,93,83,92.0,9,49.432254,-0.075539,0.000000,0
311,15.560000,-86.976093,-97.763446,0.316960,13.841234,0.010889,0.001477,0.352680,0.010812,-0.004617,-0.568699,0.004541,-0.003732,-0.280516,0.959831,1,25.156313,99.990829,40.010161,95,88,79,87.33333333333333,9,49.434482,-0.074947,0.000000,0
312,15.610000,-86.391060,-98.132015,0.317009,13.818219,0.005392,0.007126,0.344243,0.011129,-0.004584,-0.551381,0.004730,-0.003720,-0.272194,0.962224,1,25.179449,99.926430,40.145151,95,89,81,88.33333333333333,10,49.436580,-0.074131,0.000000,0
313,15.660000,-85.800244,-98.489879,0.317207,13.817048,-0.004625,0.006215,0.334632,0.011018,-0.004425,-0.534469,0.004729,-0.003588,-0.264049,0.964491,1,25.210772,99.859962,40.193950,112,106,95,104.33333333333333,10,49.434058,-0.071596,0.000000,0
314,15.710000,-85.202799,-98.838302,0.317105,13.840383,-0.005324,0.000570,0.335267,0.010598,-0.004498,-0.517773,0.004547,-0.003531,-0.255989,0.966663,1,25.248377,99.470726,40.211707,79,75,68,74.0,10,49.433308,-0.071201,0.000000,0
315,15.760000,-84.599232,-99.176889,0.316950,13.836003,-0.000722,0.002879,0.331049,0.010403,-0.004627,-0.501192,0.004465,-0.003531,-0.247966,0.968752,1,25.277222,99.999565,40.337790,86,81,74,80.33333333333333,10,49.438908,-0.071332,0.000000,0
316,15.810000,-83.990783,-99.505145,0.317039,13.824213,0.002692,0.006012,0.338937,0.010243,-0.004544,-0.484494,0.004427,-0.003434,-0.239870,0.970789,1,25.227764,99.988441,40.375834,108,102,94,101.33333333333333,10,49.431289,-0.073276,0.000000,0
317,15.860000,-83.376599,-99.823471,0.317013,13.840568,0.008653,0.002827,0.347165,0.010415,-0.004545,-0.467281,0.004540,-0.003417,-0.231505,0.972817,1,24.779423,99.974541,40.523931,88,85,76,83.0,9,49.433978,-0.073805,0.000000,0
318,15.910000,-82.756799,-100.131320,0.316962,13.842474,0.009348,0.002662,0.339656,0.010813,-0.004594,-0.450151,0.004757,-0.003445,-0.223164,0.974763,1,24.398037,99.971390,40.663612,107,101,90,99.33333333333333,10,49.434373,-0.072097,0.000000,0
319,15.960000,-82.132245,-100.428166,0.317089,13.822385,-0.001497,0.006751,0.328836,0.010885,-0.004520,-0.433562,0.004829,-0.003378,-0.215071,0.976581,1,23.980423,99.988640,40.780278,95,90,80,88.33333333333333,10,49.435667,-0.070693,0.000000,0
320,16.010000,-81.503030,-100.714478,0.317196,13.834054,-0.006593,0.003284,0.328506,0.010487,-0.004435,-0.417216,0.004671,-0.003255,-0.207084,0.978307,1,23.663158,99.985100,40.870192,155,156,160,157.0,10,49.432011,-0.069928,0.000000,0
321,16.060000,-80.868614,-100.990919,0.317082,13.843908,-0.000658,0.001294,0.337184,0.010231,-0.004520,-0.400688,0.004563,-0.003233,-0.198992,0.979985,1,23.283628,99.919495,41.026664,161,161,165,162.33333333333334,10,49.433975,-0.071923,0.000000,0
322,16.110000,-80.230009,-101.256709,0.317086,13.825675,0.007377,0.005465,0.340690,0.010355,-0.004524,-0.383794,0.004651,-0.003208,-0.190707,0.981631,1,22.974520,99.796547,41.086646,155,156,160,157.0,10,49.438196,-0.073774,0.000000,0
323,16.160000,-79.587386,-101.511417,0.317172,13.825175,0.006817,0.005018,0.343267,0.010571,-0.004452,-0.366669,0.004791,-0.003152,-0.182295,0.983227,1,22.740229,99.921219,41.176220,94,87,78,86.33333333333333,10,49.431749,-0.073467,0.000000,0
324,16.210000,-78.940064,-101.755263,0.317093,13.839049,0.005230,0.001930,0.336721,0.010756,-0.004499,-0.349667,0.004905,-0.003151,-0.173929,0.984741,1,22.321846,99.944481,41.201626,147,148,151,148.66666666666666,10,49.434100,-0.071303,0.000000,0
325,16.260000,-78.288557,-101.988147,0.317006,13.836210,-0.001526,0.002668,0.328420,0.010717,-0.004570,-0.333148,0.004905,-0.003142,-0.165790,0.986144,1,21.221844,99.865700,41.249888,147,148,152,149.0,10,49.433357,-0.070072,0.000000,0
326,16.310000,-77.633699,-102.209975,0.317076,13.821250,-0.007301,0.006025,0.325372,0.010404,-0.004524,-0.316932,0.004780,-0.003055,-0.157790,0.987456,1,20.124979,99.866524,41.284633,162,163,166,163.66666666666666,10,49.435564,-0.070184,0.000000,0
327,16.360000,-76.975099,-102.421457,0.317045,13.841203,0.000082,0.002305,0.343492,0.010113,-0.004534,-0.300254,0.004661,-0.002998,-0.149550,0.988739,1,19.229877,99.958382,41.315313,131,115,109,118.33333333333333,10,49.433418,-0.073241,0.000000,0
328,16.410000,-76.312728,-102.622054,0.316965,13.842569,0.010303,0.002691,0.348001,0.010433,-0.004587,-0.283015,0.004841,-0.003006,-0.141022,0.989990,1,21.788975,99.665955,41.400674,140,120,112,124.0,10,49.434501,-0.073954,0.000000,0
329,16.460000,-75.647530,-102.810957,0.317078,13.819558,0.008277,0.007235,0.340636,0.010840,-0.004515,-0.265870,0.005073,-0.002956,-0.132529,0.991162,1,21.624298,99.958649,41.470153,129,113,108,116.66666666666667,10,49.436392,-0.073403,0.000000,0
330,16.510000,-74.979374,-102.988125,0.317189,13.834329,-0.000911,0.002988,0.329722,0.010899,-0.004442,-0.249165,0.005131,-0.002881,-0.124246,0.992234,1,21.568892,99.949020,41.533803,84,85,88,85.66666666666667,10,49.432394,-0.069812,0.000000,0
331,16.560000,-74.307715,-103.154407,0.317084,13.841496,-0.004869,0.001686,0.320170,0.010526,-0.004519,-0.233005,0.004965,-0.002856,-0.116225,0.993206,1,21.556398,99.846245,41.597583,133,115,107,118.33333333333333,10,49.434155,-0.068330,0.000000,0
332,16.610000,-73.633629,-103.309915,0.317049,13.837862,-0.004019,0.002501,0.329402,0.010095,-0.004547,-0.216881,0.004772,-0.002807,-0.108215,0.994112,1,21.577200,98.946655,41.655588,135,118,112,121.66666666666667,10,49.432096,-0.070930,0.000000,0
333,16.660000,-72.957452,-103.454382,0.317109,13.834791,0.005541,0.003182,0.339367,0.010029,-0.004502,-0.200241,0.004764,-0.002741,-0.099941,0.994978,1,21.623415,99.481438,41.634446,143,124,117,128.0,10,49.431571,-0.073002,0.000000,0
334,16.710000,-72.278412,-103.587724,0.317020,13.841351,0.009906,0.002807,0.338656,0.010364,-0.004553,-0.183264,0.004952,-0.002741,-0.091490,0.995790,1,21.691872,99.946747,41.722040,142,121,113,125.33333333333333,10,49.434858,-0.071854,0.000000,0
335,16.760000,-71.597235,-103.709603,0.316974,13.841586,0.004715,0.002893,0.329179,0.010621,-0.004575,-0.166634,0.005102,-0.002722,-0.083207,0.996516,1,21.796883,99.828773,41.726317,132,116,111,119.66666666666667,10,49.434177,-0.069829,0.000000,0
336,16.810000,-70.914592,-103.819853,0.317084,13.826749,-0.003448,0.005341,0.316493,0.010500,-0.004504,-0.150639,0.005066,-0.002641,-0.075235,0.997149,1,21.948912,99.831154,41.834364,141,122,114,125.66666666666667,10,49.434921,-0.068414,0.000000,0
337,16.860000,-70.229908,-103.919131,0.317074,13.841868,-0.007012,0.002420,0.306815,0.010053,-0.004515,-0.135051,0.004863,-0.002591,-0.067462,0.997707,1,22.094564,99.469337,41.892080,137,119,111,122.33333333333333,10,49.433454,-0.065475,0.000000,0
338,16.910000,-69.543440,-104.007951,0.317014,13.845743,-0.007006,0.002424,0.300291,0.009584,-0.004543,-0.119974,0.004647,-0.002555,-0.059940,0.998188,1,22.316229,99.622864,41.950204,132,116,111,119.66666666666667,10,49.434201,-0.064054,0.000000,0
339,16.960000,-68.855484,-104.086461,0.316955,13.851488,-0.007748,0.001582,0.284414,0.009174,-0.004585,-0.105437,0.004460,-0.002531,-0.052683,0.998598,1,22.518084,99.994911,41.969795,139,119,111,123.0,10,49.434092,-0.060586,0.000000,0
340,17.010000,-68.166256,-104.155178,0.316913,13.854117,-0.009012,0.002413,0.273525,0.008626,-0.004614,-0.091609,0.004203,-0.002502,-0.045778,0.998940,2,22.762131,99.683334,42.036737,68,82,103,84.33333333333333,10,49.434565,-0.058364,0.000000,0
341,17.060000,-67.475537,-104.214400,0.316800,13.878647,-0.029781,-0.001376,0.161392,0.007803,-0.004671,-0.080232,0.003805,-0.002490,-0.040096,0.999185,2,23.066828,99.972076,42.144131,67,82,103,84.0,9,49.431298,-0.026464,0.000000,0
342,17.110000,-66.783042,-104.266222,0.316561,13.896274,-0.077819,-0.002090,0.039379,0.004966,-0.004786,-0.076139,0.002390,-0.002486,-0.038054,0.999270,2,23.372339,99.990585,42.138317,69,84,105,86.0,10,49.432086,-0.006716,0.000000,0
343,17.160000,-66.090104,-104.316317,0.316476,13.888734,-0.090224,0.002458,-0.004524,0.000372,-0.004779,-0.075637,0.000096,-0.002395,-0.037809,0.999282,2,23.680239,99.336983,41.952676,69,84,105,86.0,10,49.435985,0.001291,0.000000,0
344,17.210000,-65.397624,-104.367612,0.316637,13.887941,-0.033577,0.003161,0.001139,-0.002683,-0.004621,-0.075937,-0.001428,-0.002258,-0.037962,0.999276,2,23.791018,99.718643,41.999841,69,83,104,85.33333333333333,10,49.434723,-0.000552,0.000000,0
345,17.260000,-64.705241,-104.420621,0.316834,13.888065,0.028210,0.002389,0.027240,-0.002400,-0.004482,-0.075224,-0.001283,-0.002194,-0.037606,0.999289,2,23.742086,99.546806,42.030245,68,82,102,84.0,10,49.434955,-0.006137,0.000000,0
346,17.310000,-64.012884,-104.473568,0.317002,13.887219,0.042944,0.001226,0.056543,-0.000441,-0.004394,-0.073029,-0.000301,-0.002187,-0.036507,0.999331,2,23.687639,99.685028,42.110625,69,82,101,84.0,10,49.435079,-0.012327,0.000000,0
347,17.360000,-63.320423,-104.524457,0.317097,13.886157,0.040518,0.000188,0.073655,0.001609,-0.004368,-0.069665,0.000728,-0.002211,-0.034824,0.999391,2,23.717941,99.954231,42.228839,67,81,100,82.66666666666667,10,49.435182,-0.015934,0.000000,0
348,17.410000,-62.627813,-104.572537,0.317117,13.885203,0.033071,-0.000393,0.083816,0.003434,-0.004388,-0.065686,0.001644,-0.002249,-0.032833,0.999457,2,23.695175,99.997177,42.410449,66,79,99,81.33333333333333,10,49.435145,-0.018025,0.000000,0
349,17.460000,-61.935016,-104.617311,0.317079,13.884855,0.003684,-0.000676,0.086110,0.004263,-0.004434,-0.061413,0.002062,-0.002281,-0.030697,0.999524,2,23.728432,99.991974,42.698176,65,78,98,80.33333333333333,10,49.435040,-0.018341,0.000000,0
350,17.510000,-61.241991,-104.658446,0.317007,13.885065,-0.020468,-0.000659,0.080766,0.003590,-0.004485,-0.057242,0.001730,-0.002293,-0.028613,0.999586,2,23.697586,99.963112,42.753021,64,77,97,79.33333333333333,10,49.435000,-0.017244,0.000000,0
351,17.560000,-60.548775,-104.696560,0.316935,13.885451,-0.012150,-0.000314,0.073452,0.002701,-0.004521,-0.053427,0.001290,-0.002296,-0.026707,0.999640,2,23.202848,99.993729,42.860472,64,77,97,79.33333333333333,10,49.434973,-0.015726,0.000000,0
352,17.610000,-59.855419,-104.732393,0.316886,13.885782,-0.004845,0.000074,0.069586,0.002365,-0.004533,-0.049900,0.001125,-0.002295,-0.024945,0.999686,2,22.704378,99.966614,43.004122,65,78,98,80.33333333333333,10,49.434962,-0.014792,0.000000,0
353,17.660000,-59.161933,-104.765904,0.316864,13.886028,-0.011170,0.000276,0.068955,0.001897,-0.004530,-0.046461,0.000895,-0.002287,-0.023226,0.999727,2,22.195829,99.999237,43.147682,66,79,100,81.66666666666667,10,49.434973,-0.014694,0.000000,0
354,17.710000,-58.468329,-104.797026,0.316868,13.886086,-0.000697,0.000407,0.067895,0.001537,-0.004518,-0.043054,0.000720,-0.002275,-0.021523,0.999765,2,17.305048,99.988762,43.279733,66,80,100,82.0,10,49.435000,-0.014571,0.000000,0
355,17.760000,-57.774631,-104.826033,0.316892,13.886113,0.012778,0.000454,0.065234,0.001963,-0.004502,-0.039749,0.000937,-0.002270,-0.019871,0.999800,2,17.359989,99.973663,43.370981,67,81,102,83.33333333333333,10,49.434995,-0.013879,0.000000,0
356,17.810000,-57.080841,-104.852821,0.316920,13.886243,0.000027,0.000302,0.061982,0.002286,-0.004490,-0.036591,0.001102,-0.002265,-0.018292,0.999830,2,17.742157,99.984337,43.646733,79,108,149,112.0,10,49.434983,-0.013088,0.000000,0
357,17.860000,-56.386957,-104.877228,0.316938,13.886295,-0.008924,0.000147,0.061349,0.001885,-0.004486,-0.033529,0.000905,-0.002259,-0.016761,0.999857,2,19.149654,99.999115,43.734293,68,82,102,84.0,9,49.435019,-0.013145,0.000000,0
358,17.910000,-55.693003,-104.899551,0.316948,13.886246,0.004718,0.000116,0.060364,0.001795,-0.004486,-0.030503,0.000863,-0.002256,-0.015249,0.999881,2,19.931295,99.982933,43.811735,67,81,102,83.33333333333333,9,49.435024,-0.012954,0.000000,0
359,17.960000,-54.998995,-104.919990,0.316951,13.886211,0.005030,0.000087,0.060579,0.002121,-0.004486,-0.027499,0.001029,-0.002258,-0.013747,0.999902,2,19.679688,99.951286,44.005174,67,81,102,83.33333333333333,8,49.435011,-0.012875,0.000000,0
360,18.010000,-54.304920,-104.938161,0.316943,13.886347,-0.008802,-0.000006,0.056288,0.001934,-0.004491,-0.024581,0.000939,-0.002257,-0.012288,0.999922,2,19.056635,99.994743,44.187401,67,81,101,83.0,8,49.435006,-0.011927,0.000000,0
361,18.060000,-53.610786,-104.954246,0.316931,13.886441,-0.003031,0.000010,0.054492,0.001537,-0.004496,-0.021842,0.000744,-0.002256,-0.010919,0.999938,2,18.774630,99.999207,44.264233,67,82,102,83.66666666666667,8,49.435022,-0.011714,0.000000,0
362,18.110000,-52.916612,-104.968618,0.316923,13.886524,0.006336,0.000073,0.049346,0.001741,-0.004498,-0.019266,0.000849,-0.002257,-0.009631,0.999951,2,18.492245,99.960411,44.521431,66,80,99,81.66666666666667,8,49.435008,-0.010441,0.000000,0
363,18.160000,-52.222400,-104.981341,0.316917,13.886619,-0.005068,0.000067,0.050825,0.001719,-0.004499,-0.016794,0.000841,-0.002256,-0.008395,0.999962,2,18.198238,99.993164,44.760659,67,80,99,82.0,9,49.435011,-0.010818,0.000000,0
364,18.210000,-51.528153,-104.992126,0.316914,13.886643,-0.006821,0.000069,0.047566,0.001321,-0.004499,-0.014329,0.000644,-0.002254,-0.007163,0.999972,2,17.647495,99.996841,44.904135,67,80,99,82.0,8,49.435024,-0.010163,0.000000,0
365,18.260000,-50.833881,-105.001347,0.316916,13.886700,0.006390,0.000112,0.046206,0.001348,-0.004497,-0.012015,0.000661,-0.002253,-0.006006,0.999979,2,17.549559,99.976326,45.072214,66,79,98,81.0,8,49.435025,-0.009903,0.000000,0
366,18.310000,-50.139589,-105.009122,0.316921,13.886753,0.002588,0.000104,0.043272,0.001653,-0.004495,-0.009792,0.000815,-0.002252,-0.004894,0.999985,2,17.180706,99.999161,45.291020,64,77,96,79.0,8,49.435012,-0.009110,0.000000,0
367,18.360000,-49.445274,-105.015169,0.316923,13.886889,-0.010808,0.000039,0.037312,0.001332,-0.004495,-0.007791,0.000657,-0.002250,-0.003894,0.999990,2,17.081152,99.981003,45.427750,63,76,95,78.0,8,49.435018,-0.007872,0.000000,0
368,18.410000,-48.750943,-105.019818,0.316923,13.886992,-0.003004,0.000030,0.032563,0.000931,-0.004495,-0.006078,0.000459,-0.002249,-0.003038,0.999993,2,16.642681,99.994102,45.506429,62,75,94,77.0,9,49.435025,-0.006975,0.000000,0
369,18.460000,-48.056601,-105.023528,0.316924,13.887077,0.003453,0.000039,0.027008,0.001060,-0.004495,-0.004616,0.000525,-0.002249,-0.002307,0.999995,2,16.951359,99.958603,45.684227,62,74,93,76.33333333333333,9,49.435025,-0.005647,0.000000,0
370,18.510000,-47.362251,-105.026330,0.316922,13.887137,-0.007721,0.000015,0.027234,0.000890,-0.004495,-0.003287,0.000441,-0.002248,-0.001643,0.999996,2,16.404200,99.999557,45.870960,61,74,92,75.66666666666667,9,49.435031,-0.005770,0.000000,0
371,18.560000,-46.667897,-105.028063,0.316921,13.887134,-0.005145,0.000013,0.024682,0.000490,-0.004495,-0.001987,0.000243,-0.002248,-0.000993,0.999997,2,16.269527,99.982269,46.085379,61,73,92,75.33333333333333,8,49.435039,-0.005298,0.000000,0
372,18.610000,-45.973540,-105.029095,0.316921,13.887152,0.008108,0.000032,0.024254,0.000639,-0.004495,-0.000786,0.000319,-0.002248,-0.000392,0.999997,2,16.087709,99.989082,46.260322,60,72,91,74.33333333333333,7,49.435040,-0.005201,0.000000,0
373,18.660000,-45.279182,-105.029401,0.316921,13.887180,0.001468,0.000022,0.021742,0.000944,-0.004494,0.000360,0.000472,-0.002247,0.000181,0.999997,2,17.125778,99.983742,46.343354,60,72,90,74.0,7,49.435031,-0.004511,0.000000,0
374,18.710000,-44.584823,-105.028770,0.316920,13.887205,-0.008512,0.000005,0.022005,0.000626,-0.004495,0.001442,0.000315,-0.002247,0.000721,0.999997,2,17.749897,99.956779,46.479140,59,71,89,73.0,6,49.435042,-0.004726,0.000000,0
375,18.760000,-43.890464,-105.027371,0.316921,13.887196,0.003027,0.000018,0.021574,0.000489,-0.004495,0.002527,0.000247,-0.002247,0.001264,0.999997,2,18.028643,99.994423,46.663498,59,70,88,72.33333333333333,6,49.435042,-0.004677,0.000000,0
376,18.810000,-43.196107,-105.025376,0.316922,13.887212,0.005829,0.000025,0.018081,0.000830,-0.004494,0.003510,0.000419,-0.002246,0.001756,0.999996,2,17.841373,99.957886,46.763055,58,70,88,72.0,5,49.435036,-0.003749,0.000000,0
377,18.860000,-42.501751,-105.022655,0.316922,13.887260,-0.008246,0.000001,0.016264,0.000689,-0.004494,0.004354,0.000350,-0.002246,0.002178,0.999995,2,16.126146,99.961105,46.908715,58,69,87,71.33333333333333,5,49.435038,-0.003404,0.000000,0
378,18.910000,-41.807397,-105.019154,0.316921,13.887268,-0.006579,-0.000003,0.008907,0.000255,-0.004495,0.004979,0.000133,-0.002247,0.002490,0.999994,2,16.246323,99.986382,47.040860,58,69,87,71.33333333333333,5,49.435035,-0.001861,0.000000,0
379,18.960000,-41.113041,-105.015476,0.316920,13.887321,0.003244,-0.000001,0.005511,0.000243,-0.004495,0.005299,0.000128,-0.002247,0.002650,0.999994,2,16.302595,99.999565,47.179956,59,70,88,72.33333333333333,5,49.435042,-0.001143,0.000000,0
380,19.010000,-40.418685,-105.011594,0.316920,13.887354,-0.006417,0.000002,-0.007223,0.000245,-0.004495,0.005252,0.000128,-0.002247,0.002626,0.999994,2,16.800642,99.999794,47.540181,59,70,88,72.33333333333333,5,49.435033,0.001836,0.000000,0
381,19.060000,-39.724329,-105.007785,0.316921,13.887294,-0.014237,0.000021,-0.009763,-0.000438,-0.004494,0.004774,-0.000213,-0.002248,0.002386,0.999995,2,16.741671,99.976967,47.956675,58,69,87,71.33333333333333,5,49.435049,0.002069,0.000000,0
382,19.110000,-39.029972,-105.004493,0.316921,13.887317,0.002312,0.000005,-0.008180,-0.000694,-0.004494,0.004318,-0.000342,-0.002248,0.002158,0.999995,2,17.065758,99.993790,48.048525,58,69,87,71.33333333333333,5,49.435040,0.001657,0.000000,0
383,19.160000,-38.335612,-105.001768,0.316921,13.887311,0.007869,0.000000,-0.005943,-0.000310,-0.004494,0.003970,-0.000151,-0.002247,0.001985,0.999995,2,17.042530,99.948532,48.145342,58,69,87,71.33333333333333,5,49.435045,0.001305,0.000000,0
384,19.210000,-37.641250,-104.999174,0.316921,13.887322,-0.002639,0.000001,-0.005976,-0.000222,-0.004494,0.003687,-0.000107,-0.002247,0.001843,0.999996,2,17.321539,99.902405,48.178187,58,70,88,72.0,5,49.435045,0.001325,0.000000,0
385,19.260000,-36.946889,-104.996660,0.316922,13.887323,0.000632,-0.000000,-0.004924,-0.000340,-0.004494,0.003415,-0.000166,-0.002247,0.001707,0.999996,2,17.573933,99.744690,48.234835,59,70,88,72.33333333333333,5,49.435043,0.000968,0.000000,0
386,19.310000,-36.252526,-104.994456,0.316921,13.887325,0.008149,-0.000002,-0.003810,-0.000028,-0.004494,0.003197,-0.000010,-0.002247,0.001599,0.999996,2,18.041262,99.963326,48.276628,59,70,88,72.33333333333333,5,49.435047,0.000808,0.000000,0
387,19.360000,-35.558163,-104.992418,0.316921,13.887331,-0.001281,-0.000003,-0.000547,0.000135,-0.004494,0.003094,0.000071,-0.002247,0.001547,0.999996,2,18.254049,99.583488,48.172816,59,70,88,72.33333333333333,4,49.435042,0.000130,0.000000,0
388,19.410000,-34.863800,-104.990189,0.316921,13.887321,-0.005471,0.000002,-0.002439,-0.000112,-0.004494,0.003039,-0.000053,-0.002247,0.001520,0.999996,2,18.664497,99.990913,48.407451,59,70,88,72.33333333333333,4,49.435046,0.000513,0.000000,0
389,19.460000,-34.169437,-104.988026,0.316921,13.887334,0.003291,-0.000002,-0.005949,-0.000125,-0.004494,0.002818,-0.000059,-0.002247,0.001409,0.999996,2,19.037878,99.997345,49.359349,59,70,88,72.33333333333333,4,49.435043,0.001279,0.000000,0
390,19.510000,-33.475073,-104.986163,0.316921,13.887322,-0.000393,0.000003,-0.009408,0.000017,-0.004494,0.002420,0.000011,-0.002247,0.001210,0.999997,2,18.433001,99.999069,49.928241,59,70,88,72.33333333333333,4,49.435047,0.002127,0.000000,0
391,19.560000,-32.780710,-104.984517,0.316921,13.887301,-0.009891,0.000013,-0.009730,-0.000336,-0.004494,0.001933,-0.000166,-0.002247,0.000966,0.999997,2,17.909897,99.994316,50.323887,59,70,89,72.66666666666667,4,49.435047,0.002083,0.000000,0
392,19.610000,-32.086346,-104.983216,0.316922,13.887315,0.000139,0.000003,-0.007663,-0.000605,-0.004494,0.001498,-0.000301,-0.002247,0.000748,0.999997,2,17.373472,99.995178,50.502756,59,71,89,73.0,4,49.435041,0.001528,0.000000,0
393,19.660000,-31.391980,-104.982456,0.316922,13.887313,0.009914,-0.000002,-0.001943,-0.000248,-0.004494,0.001262,-0.000122,-0.002247,0.000631,0.999997,2,16.899527,99.989159,50.540836,59,71,89,73.0,4,49.435044,0.000353,0.000000,0
394,19.710000,-30.697615,-104.981795,0.316921,13.887336,0.001547,-0.000007,0.001331,0.000045,-0.004494,0.001274,0.000024,-0.002247,0.000637,0.999997,2,16.343084,99.973450,50.786500,59,71,89,73.0,4,49.435043,-0.000264,0.000000,0
395,19.760000,-30.003249,-104.980882,0.316921,13.887329,-0.001178,-0.000002,0.001550,-0.000029,-0.004494,0.001361,-0.000013,-0.002247,0.000681,0.999997,3,15.860350,99.998497,50.941424,59,71,89,73.0,4,49.435047,-0.000379,0.000000,0
396,19.810000,-29.308883,-104.979871,0.316921,13.887341,0.004911,-0.000001,-0.004367,0.000137,-0.004494,0.001290,0.000070,-0.002247,0.000645,0.999997,3,15.407534,99.998215,50.998757,59,71,89,73.0,8,49.435042,0.001008,0.000000,0
397,19.860000,-28.614516,-104.979044,0.316921,13.887328,-0.003279,0.000003,-0.005702,0.000186,-0.004494,0.001011,0.000094,-0.002247,0.000506,0.999997,3,14.912694,99.967438,51.111292,59,71,89,73.0,8,49.435047,0.001292,0.000000,0
398,19.910000,-27.920150,-104.978314,0.316921,13.887325,-0.009835,0.000007,-0.004275,-0.000245,-0.004494,0.000763,-0.000122,-0.002247,0.000381,0.999997,3,14.470137,99.472977,51.008624,60,71,90,73.66666666666667,8,49.435046,0.000869,0.000000,0
399,19.960000,-27.225784,-104.977750,0.316921,13.887332,0.002025,0.000000,-0.004341,-0.000421,-0.004494,0.000554,-0.000210,-0.002247,0.000277,0.999997,3,14.071232,99.911240,50.934638,60,71,90,73.66666666666667,8,49.435043,0.000862,0.000000,0
400,20.010000,-26.531418,-104.977526,0.316921,13.887324,0.006818,-0.000001,-0.004516,-0.000089,-0.004494,0.000329,-0.000044,-0.002247,0.000164,0.999997,3,13.664046,99.999329,51.026666,55,64,76,65.0,8,49.435047,0.001015,0.000000,0
401,20.060000,-25.837052,-104.977381,0.316921,13.887324,-0.004757,0.000001,-0.006851,-0.000067,-0.004494,0.000050,-0.000034,-0.002247,0.000025,0.999997,3,13.311754,99.937431,50.949335,60,72,90,74.0,8,49.435046,0.001553,0.000000,0
402,20.110000,-25.142686,-104.977352,0.316922,13.887321,-0.003574,0.000002,-0.005027,-0.000374,-0.004494,-0.000256,-0.000187,-0.002247,-0.000129,0.999997,3,12.958961,99.823410,50.868922,60,72,91,74.33333333333333,8,49.435043,0.000975,0.000000,0
403,20.160000,-24.448319,-104.977628,0.316921,13.887329,0.006971,-0.000002,-0.005631,-0.000189,-0.004494,-0.000516,-0.000095,-0.002247,-0.000258,0.999997,3,12.668644,99.923866,50.909211,60,72,91,74.33333333333333,8,49.435046,0.001207,0.000000,0
404,20.210000,-23.753953,-104.978189,0.316921,13.887325,0.000515,-0.000002,-0.003122,0.000018,-0.004494,-0.000739,0.000008,-0.002247,-0.000369,0.999997,3,12.351725,99.914490,50.793662,60,72,91,74.33333333333333,9,49.435044,0.000693,0.000000,0
405,20.260000,-23.059587,-104.978719,0.316921,13.887329,-0.005021,0.000001,-0.001903,-0.000180,-0.004494,-0.000848,-0.000091,-0.002247,-0.000424,0.999997,3,12.113689,99.908157,50.742066,61,72,91,74.66666666666667,9,49.435047,0.000368,0.000000,0
406,20.310000,-22.365221,-104.979341,0.316921,13.887339,0.005094,-0.000001,0.001023,-0.000171,-0.004494,-0.000869,-0.000086,-0.002247,-0.000435,0.999997,3,11.889998,99.898575,50.693159,61,72,91,74.66666666666667,9,49.435044,-0.000323,0.000000,0
407,20.360000,-21.670855,-104.980119,0.316921,13.887314,0.007316,0.000004,0.005335,0.000222,-0.004494,-0.000702,0.000110,-0.002247,-0.000351,0.999997,3,11.691321,99.914902,50.751580,60,72,91,74.33333333333333,9,49.435046,-0.001154,0.000000,0
408,20.410000,-20.976489,-104.980612,0.316921,13.887328,-0.002946,-0.000002,0.006737,0.000281,-0.004494,-0.000379,0.000140,-0.002247,-0.000189,0.999997,3,11.556179,99.766373,50.635297,60,72,90,74.0,9,49.435045,-0.001426,0.000000,0
409,20.460000,-20.282123,-104.980704,0.316921,13.887321,-0.000872,0.000000,0.005528,0.000129,-0.004494,-0.000067,0.000064,-0.002247,-0.000034,0.999997,3,11.450641,99.999161,50.704864,55,64,76,65.0,9,49.435046,-0.001226,0.000000,0
410,20.510000,-19.587756,-104.980657,0.316921,13.887335,0.004336,0.000002,0.001615,0.000299,-0.004494,0.000102,0.000150,-0.002247,0.000051,0.999997,3,11.387941,99.977776,50.449177,60,71,90,73.66666666666667,9,49.435045,-0.000277,0.000000,0
411,20.560000,-18.893389,-104.980518,0.316921,13.887342,-0.006061,0.000001,-0.002632,0.000252,-0.004494,0.000062,0.000126,-0.002247,0.000031,0.999997,3,11.368855,99.985886,50.313015,60,71,90,73.66666666666667,9,49.435045,0.000684,0.000000,0
412,20.610000,-18.199023,-104.980308,0.316921,13.887316,-0.009911,0.000007,-0.005660,-0.000245,-0.004494,-0.000158,-0.000123,-0.002247,-0.000079,0.999997,2,11.385942,99.854591,50.215126,55,63,76,64.66666666666667,9,49.435048,0.001209,0.000000,0
413,20.660000,-17.504657,-104.980384,0.316922,13.887327,0.001863,-0.000001,-0.007175,-0.000402,-0.004494,-0.000492,-0.000201,-0.002247,-0.000247,0.999997,2,11.444754,99.976509,49.989445,60,71,90,73.66666666666667,9,49.435044,0.001508,0.000000,0
414,20.710000,-16.810292,-104.980960,0.316921,13.887315,0.003988,-0.000002,-0.002043,-0.000194,-0.004494,-0.000732,-0.000098,-0.002247,-0.000366,0.999997,2,11.546573,99.824844,49.761672,60,72,90,74.0,9,49.435043,0.000409,0.000000,0
415,20.760000,-16.115925,-104.981617,0.316921,13.887342,-0.000891,-0.000004,0.003832,-0.000169,-0.004494,-0.000661,-0.000085,-0.002247,-0.000331,0.999997,2,11.677841,99.948334,49.650679,60,71,90,73.66666666666667,9,49.435044,-0.000890,0.000000,0
416,20.810000,-15.421559,-104.982082,0.316921,13.887331,0.006010,0.000001,0.005914,-0.000048,-0.004494,-0.000395,-0.000024,-0.002247,-0.000197,0.999997,2,11.869673,99.886597,49.464060,55,63,76,64.66666666666667,8,49.435048,-0.001344,0.000000,0
417,20.860000,-14.727192,-104.982400,0.316921,13.887324,0.008455,0.000007,0.004314,0.000405,-0.004494,-0.000136,0.000202,-0.002247,-0.000067,0.999997,2,12.085819,99.718277,49.348478,59,71,89,73.0,8,49.435046,-0.000861,0.000000,0
418,20.910000,-14.032826,-104.982467,0.316921,13.887336,-0.004890,0.000000,0.003107,0.000448,-0.004494,0.000044,0.000224,-0.002247,0.000022,0.999997,2,12.318171,99.998810,49.056364,59,70,88,72.33333333333333,9,49.435044,-0.000596,0.000000,0
419,20.960000,-13.338459,-104.982226,0.316921,13.887324,-0.007682,0.000001,0.000777,0.000039,-0.004494,0.000140,0.000020,-0.002247,0.000070,0.999997,2,12.610089,99.960022,48.951566,59,70,88,72.33333333333333,9,49.435046,-0.000188,0.000000,0
420,21.010000,-12.644093,-104.982023,0.316921,13.887338,0.002224,-0.000003,-0.001329,-0.000043,-0.004494,0.000112,-0.000021,-0.002247,0.000056,0.999997,2,12.919587,99.999313,48.735716,59,70,88,72.33333333333333,9,49.435045,0.000280,0.000000,0
421,21.060000,-11.949726,-104.981969,0.316921,13.887336,-0.001018,-0.000001,-0.004276,0.000052,-0.004494,-0.000035,0.000026,-0.002247,-0.000018,0.999997,2,13.231023,99.973953,48.654365,59,70,88,72.33333333333333,9,49.435046,0.001021,0.000000,0
422,21.110000,-11.255359,-104.981989,0.316921,13.887331,-0.007348,0.000004,-0.002597,-0.000255,-0.004494,-0.000217,-0.000128,-0.002247,-0.000109,0.999997,1,13.647014,99.812164,48.596523,59,70,88,72.33333333333333,9,49.435046,0.000515,0.000000,0
423,21.160000,-10.560993,-104.982115,0.316921,13.887334,0.002751,-0.000000,-0.002950,-0.000352,-0.004494,-0.000346,-0.000177,-0.002247,-0.000174,0.999997,1,14.000054,99.999283,48.658801,59,70,88,72.33333333333333,9,49.435044,0.000582,0.000000,0
424,21.210000,-9.866626,-104.982504,0.316921,13.887328,0.006828,0.000000,-0.002579,-0.000021,-0.004494,-0.000491,-0.000011,-0.002247,-0.000245,0.999997,1,14.459189,99.976662,48.491826,59,70,88,72.33333333333333,9,49.435047,0.000585,0.000000,0
425,21.260000,-9.172260,-104.982966,0.316921,13.887337,-0.002918,-0.000002,-0.000294,0.000034,-0.004494,-0.000558,0.000017,-0.002247,-0.000279,0.999997,1,14.900385,99.968697,48.475247,59,70,88,72.33333333333333,9,49.435044,0.000072,0.000000,0
426,21.310000,-8.477893,-104.983320,0.316921,13.887335,-0.001474,-0.000000,0.001592,-0.000145,-0.004494,-0.000514,-0.000073,-0.002247,-0.000257,0.999997,1,15.351867,99.669182,48.416787,59,70,88,72.33333333333333,10,49.435046,-0.000425,0.000000,0
427,21.360000,-7.783526,-104.983734,0.316921,13.887328,0.007822,0.000003,0.004035,0.000080,-0.004494,-0.000371,0.000040,-0.002247,-0.000186,0.999997,1,15.836064,99.882370,48.281330,58,69,87,71.33333333333333,10,49.435047,-0.000914,0.000000,0
428,21.410000,-7.089160,-104.984037,0.316921,13.887333,0.001080,-0.000000,0.002589,0.000350,-0.004494,-0.000194,0.000175,-0.002247,-0.000097,0.999997,1,16.301544,99.881165,48.164227,58,69,87,71.33333333333333,10,49.435044,-0.000459,0.000000,0
429,21.460000,-6.394793,-104.984103,0.316921,13.887335,-0.006198,-0.000000,0.005503,0.000100,-0.004494,0.000001,0.000050,-0.002247,0.000001,0.999997,1,16.816872,99.989395,48.320025,58,68,86,70.66666666666667,10,49.435047,-0.001250,0.000000,0
430,21.510000,-5.700427,-104.983942,0.316921,13.887331,0.002515,0.000000,0.002189,0.000046,-0.004494,0.000208,0.000023,-0.002247,0.000104,0.999997,1,17.334242,99.956696,48.433944,57,68,85,70.0,10,49.435043,-0.000462,0.000000,0
431,21.560000,-5.006060,-104.983764,0.316921,13.887341,0.001860,0.000000,-0.002483,0.000233,-0.004494,0.000182,0.000117,-0.002247,0.000091,0.999997,1,17.121073,99.997208,48.489354,57,67,85,69.66666666666667,10,49.435045,0.000647,0.000000,0
432,21.610000,-4.311693,-104.983574,0.316921,13.887329,-0.009232,0.000004,-0.005832,-0.000015,-0.004494,-0.000040,-0.000007,-0.002247,-0.000020,0.999997,1,15.900387,99.999176,48.655904,57,67,84,69.33333333333333,10,49.435048,0.001323,0.000000,0
433,21.660000,-3.617327,-104.983560,0.316922,13.887332,-0.004123,0.000001,-0.002722,-0.000428,-0.004494,-0.000268,-0.000215,-0.002247,-0.000134,0.999997,1,16.822609,99.991966,48.755066,57,67,84,69.33333333333333,10,49.435043,0.000457,0.000000,0
434,21.710000,-2.922961,-104.983958,0.316922,13.887315,0.010117,0.000003,0.007575,-0.000204,-0.004494,-0.000140,-0.000102,-0.002247,-0.000070,0.999997,1,16.850197,99.987656,48.794114,57,66,83,68.66666666666667,10,49.435042,-0.001787,0.000000,0
435,21.760000,-2.228597,-104.984306,0.316922,13.887264,0.009071,0.000007,0.019106,0.000315,-0.004493,0.000568,0.000158,-0.002247,0.000284,0.999997,1,16.293652,99.948105,48.774981,56,65,81,67.33333333333333,10,49.435043,-0.004190,0.000000,0
436,21.810000,-1.534236,-104.983982,0.316922,13.887141,0.007714,0.000032,0.035326,0.000628,-0.004493,0.001969,0.000316,-0.002246,0.000985,0.999997,1,16.120621,99.989670,48.858636,56,65,81,67.33333333333333,10,49.435055,-0.007822,0.000000,0
437,21.860000,-0.839891,-104.982508,0.316926,13.886782,0.017506,0.000117,0.049024,0.001278,-0.004492,0.004133,0.000644,-0.002244,0.002068,0.999995,1,16.712721,99.951805,48.839331,58,68,85,70.33333333333333,10,49.435075,-0.010715,0.000000,0
438,21.910000,-0.145573,-104.979436,0.316933,13.886322,0.015309,0.000184,0.063398,0.002118,-0.004488,0.006981,0.001067,-0.002241,0.003493,0.999991,1,11.094143,99.997673,48.910970,62,73,90,75.0,10,49.435061,-0.013717,0.000000,0
439,21.960000,0.548710,-104.973969,0.316939,13.886014,0.003045,0.000164,0.070716,0.002489,-0.004488,0.010384,0.001256,-0.002237,0.005195,0.999983,1,18.083443,99.995811,49.095169,63,73,91,75.66666666666667,10,49.435050,-0.015200,0.000000,0
440,22.010000,1.242953,-104.965871,0.316943,13.885696,0.003479,0.000200,0.078919,0.002535,-0.004489,0.014134,0.001283,-0.002235,0.007070,0.999972,1,16.499010,99.972305,49.047244,64,74,92,76.66666666666667,10,49.435053,-0.017067,0.000000,0
441,22.060000,1.937138,-104.955188,0.316949,13.885136,0.009640,0.000310,0.090469,0.002872,-0.004487,0.018380,0.001456,-0.002230,0.009193,0.999954,1,17.383644,99.991081,49.093398,64,74,93,77.0,10,49.435046,-0.019520,0.000000,0
442,22.110000,2.631232,-104.941629,0.316958,13.884016,0.008458,0.000462,0.118653,0.003215,-0.004484,0.023613,0.001634,-0.002223,0.011810,0.999926,1,16.751848,99.985878,49.312849,63,74,91,76.0,10,49.435044,-0.025781,0.000000,0
443,22.160000,3.325152,-104.924178,0.316975,13.881965,0.017972,0.000774,0.149579,0.003776,-0.004477,0.030410,0.001922,-0.002210,0.015209,0.999880,1,8.585064,99.991600,49.428644,63,74,90,75.66666666666667,10,49.435142,-0.032492,0.000000,0
444,22.210000,4.018806,-104.901657,0.317007,13.879641,0.030074,0.001131,0.169278,0.005022,-0.004463,0.038472,0.002553,-0.002183,0.019240,0.999809,1,16.811255,99.987541,49.519155,66,78,95,79.66666666666667,10,49.435123,-0.036488,0.000000,0
445,22.260000,4.712147,-104.873156,0.317036,13.878346,0.018691,0.001110,0.177957,0.006225,-0.004455,0.047193,0.003164,-0.002154,0.023601,0.999714,1,16.935431,99.893013,49.461156,65,77,95,79.0,10,49.434956,-0.038089,0.000000,0
446,22.310000,5.405142,-104.838082,0.317045,13.876866,-0.002725,0.001115,0.180439,0.006436,-0.004464,0.056152,0.003279,-0.002141,0.028079,0.999598,1,17.067907,99.970413,49.408592,64,76,93,77.66666666666667,10,49.435463,-0.038599,0.000000,0
447,22.360000,6.097752,-104.796689,0.317042,13.876841,0.000540,0.001024,0.197134,0.006168,-0.004475,0.065548,0.003156,-0.002135,0.032775,0.999455,1,17.210098,99.858345,49.411126,135,119,112,122.0,10,49.434886,-0.042528,0.000000,0
448,22.410000,6.789860,-104.748856,0.317050,13.874293,0.013957,0.001577,0.219308,0.006520,-0.004475,0.075984,0.003343,-0.002112,0.037990,0.999270,1,17.688444,99.991447,49.466672,148,122,111,127.0,10,49.434982,-0.047248,0.000000,0
449,22.460000,7.481211,-104.693675,0.317085,13.870653,0.015027,0.001967,0.243093,0.007166,-0.004455,0.087581,0.003677,-0.002069,0.043784,0.999032,1,17.877096,99.848526,49.490177,131,114,109,118.0,10,49.434645,-0.052334,0.000000,0
450,22.510000,8.171629,-104.630089,0.317130,13.866277,0.015133,0.002394,0.256864,0.007825,-0.004432,0.100123,0.004018,-0.002018,0.050049,0.998737,1,18.347195,99.984146,49.351958,25,29,43,32.333333333333336,10,49.434872,-0.055262,0.000000,0
451,22.560000,8.861084,-104.557469,0.317147,13.866677,0.015359,0.001965,0.257432,0.008520,-0.004423,0.112991,0.004378,-0.001967,0.056474,0.998393,1,18.542404,99.820198,49.274500,65,75,90,76.66666666666667,10,49.434250,-0.055092,0.000000,0
452,22.610000,9.549527,-104.475878,0.317137,13.861050,0.000068,0.002831,0.259397,0.008785,-0.004436,0.125852,0.004523,-0.001937,0.062893,0.998008,1,18.951794,99.848511,49.203304,63,74,90,75.66666666666667,10,49.436184,-0.055333,0.000000,0
453,22.660000,10.236391,-104.385428,0.317200,13.858212,-0.004212,0.002078,0.268696,0.008484,-0.004402,0.139001,0.004385,-0.001901,0.069453,0.997574,1,19.336143,99.974609,49.194609,62,72,88,74.0,10,49.433648,-0.057741,0.000000,0
454,22.710000,10.922196,-104.285946,0.317160,13.859908,0.006634,0.001859,0.289144,0.008422,-0.004440,0.152933,0.004368,-0.001892,0.076401,0.997066,1,19.925894,99.965118,49.221616,60,69,84,71.0,10,49.434851,-0.062328,0.000000,0
455,22.760000,11.606531,-104.176880,0.317114,13.859194,0.021610,0.002316,0.310922,0.009143,-0.004472,0.167953,0.004743,-0.001845,0.083887,0.996462,1,20.315281,99.976479,49.184960,62,70,85,72.33333333333333,10,49.434442,-0.066904,0.000000,0
456,22.810000,12.287914,-104.057511,0.317340,13.819958,0.013926,0.008461,0.318195,0.009962,-0.004306,0.183721,0.005157,-0.001687,0.091741,0.995768,1,20.894964,99.947716,49.111428,62,72,87,73.66666666666667,10,49.436745,-0.068675,0.000000,0
457,22.860000,12.967174,-103.927209,0.317399,13.841128,0.008102,0.001115,0.323743,0.010383,-0.004292,0.199779,0.005380,-0.001617,0.099733,0.994998,1,15.389322,99.971123,49.068139,64,74,89,75.66666666666667,10,49.432204,-0.068893,0.000000,0
458,22.910000,13.644828,-103.785886,0.317207,13.845156,0.003961,0.000530,0.326630,0.010546,-0.004453,0.215995,0.005482,-0.001645,0.107798,0.994156,1,17.821974,99.977898,49.018451,62,72,87,73.66666666666667,10,49.434976,-0.069397,0.000000,0
459,22.960000,14.319173,-103.633669,0.317243,13.811168,-0.000636,0.007196,0.333803,0.010511,-0.004408,0.232428,0.005476,-0.001580,0.115962,0.993237,1,22.163616,99.797775,48.848930,64,73,87,74.66666666666667,10,49.436903,-0.072306,0.000000,0
460,23.010000,14.990104,-103.470351,0.317359,13.819773,0.003727,0.002546,0.348254,0.010495,-0.004317,0.249430,0.005475,-0.001489,0.124401,0.992216,1,21.645163,99.604698,48.679826,63,72,87,74.0,10,49.428614,-0.074847,0.000000,0
461,23.060000,15.659451,-103.295398,0.317066,13.841548,0.012375,-0.000934,0.355600,0.010815,-0.004551,0.267079,0.005662,-0.001535,0.133153,0.991078,1,21.137379,99.934021,48.677586,63,73,87,74.33333333333333,10,49.434603,-0.075601,0.000000,0
462,23.110000,16.325329,-103.108620,0.316952,13.818784,0.009211,0.005999,0.348419,0.011300,-0.004625,0.284657,0.005921,-0.001488,0.141859,0.989868,1,20.648352,99.945503,48.528567,64,73,88,75.0,10,49.438534,-0.074795,0.000000,0
463,23.160000,16.986735,-102.910314,0.317149,13.811679,-0.000519,0.005970,0.344671,0.011356,-0.004480,0.301893,0.005950,-0.001360,0.150384,0.988609,1,20.152576,99.996971,48.537978,60,70,84,71.33333333333333,10,49.433496,-0.074127,0.000000,0
464,23.210000,17.644939,-102.700553,0.317189,13.828814,-0.001549,0.001348,0.352155,0.011105,-0.004475,0.319197,0.005838,-0.001327,0.158931,0.987271,1,19.666550,99.979027,48.681373,59,67,80,68.66666666666667,10,49.430334,-0.075131,0.000000,0
465,23.260000,18.300449,-102.479292,0.316977,13.838682,0.004826,0.001440,0.363009,0.011077,-0.004644,0.337049,0.005849,-0.001360,0.167738,0.985813,1,19.216873,99.978745,48.701671,62,69,83,71.33333333333333,10,49.434688,-0.077278,0.000000,0
466,23.310000,18.950778,-102.246698,0.317147,13.797863,0.009609,0.010024,0.370892,0.011349,-0.004499,0.355331,0.005983,-0.001211,0.176742,0.984238,1,18.733639,99.984955,48.596711,63,71,85,73.0,10,49.436297,-0.080387,0.000000,0
467,23.360000,19.595851,-102.002320,0.317427,13.799753,0.012291,0.006519,0.376672,0.011823,-0.004308,0.374023,0.006209,-0.001017,0.185932,0.982542,1,18.264954,99.995537,48.350721,63,72,86,73.66666666666667,10,49.433524,-0.081270,0.000000,0
468,23.410000,20.237307,-101.745421,0.317298,13.823874,0.012114,0.001307,0.376527,0.012363,-0.004455,0.392888,0.006497,-0.000978,0.195192,0.980743,1,17.698843,99.991547,48.228779,62,70,84,72.0,10,49.432834,-0.080261,0.000000,0
469,23.460000,20.873504,-101.476494,0.317274,13.805144,0.002359,0.005832,0.367632,0.012593,-0.004502,0.411418,0.006623,-0.000918,0.204271,0.978892,1,17.110201,99.993675,47.996806,21,25,37,27.666666666666668,10,49.435955,-0.079016,0.000000,0
470,23.510000,21.504019,-101.196023,0.317370,13.803708,-0.005376,0.004810,0.367064,0.012320,-0.004456,0.429698,0.006493,-0.000863,0.213209,0.976985,1,16.695892,99.970192,47.795806,20,24,34,26.0,10,49.433612,-0.079096,0.000000,0
471,23.560000,22.129403,-100.903998,0.317351,13.812268,-0.003386,0.002534,0.373251,0.011938,-0.004472,0.448095,0.006317,-0.000854,0.222186,0.974983,1,16.075182,99.921204,47.513572,20,24,35,26.333333333333332,10,49.428902,-0.080078,0.000000,0
472,23.610000,22.750207,-100.600182,0.317088,13.822730,0.001556,0.002502,0.375997,0.011810,-0.004635,0.466840,0.006281,-0.000889,0.231315,0.972858,1,15.631775,99.917419,47.382918,61,67,78,68.66666666666667,10,49.433244,-0.080323,0.000000,0
473,23.660000,23.364321,-100.285193,0.317150,13.799434,0.002187,0.007344,0.373686,0.011796,-0.004529,0.485465,0.006269,-0.000781,0.240364,0.970662,1,15.053862,99.763702,47.147090,61,67,78,68.66666666666667,10,49.434454,-0.080528,0.000000,0
474,23.710000,23.972440,-99.958724,0.317181,13.815551,0.003718,0.002691,0.369208,0.011844,-0.004486,0.503951,0.006294,-0.000696,0.249326,0.968399,1,14.618686,99.961014,47.126158,59,64,77,66.66666666666667,10,49.429298,-0.078864,0.000000,0
475,23.760000,24.575478,-99.620691,0.316978,13.826305,0.002536,0.002315,0.367286,0.011873,-0.004647,0.522308,0.006335,-0.000712,0.258204,0.966069,1,8.341059,99.917435,46.955365,63,70,82,71.66666666666667,10,49.433310,-0.078396,0.000000,0
476,23.810000,25.171584,-99.272095,0.317081,13.800192,0.000331,0.008557,0.369843,0.011792,-0.004561,0.540656,0.006291,-0.000623,0.267055,0.963660,1,7.594475,99.959404,46.691666,64,72,85,73.66666666666667,10,49.435765,-0.079883,0.000000,0
477,23.860000,25.760430,-98.913105,0.317362,13.791852,0.005084,0.007945,0.384662,0.011769,-0.004358,0.559481,0.006257,-0.000469,0.276113,0.961105,1,13.518181,99.977852,46.532594,61,67,81,69.66666666666667,10,49.433957,-0.083340,0.000000,0
478,23.910000,26.343262,-98.542485,0.317271,13.823631,0.016724,0.000753,0.396383,0.012284,-0.004473,0.579068,0.006525,-0.000390,0.285513,0.958353,1,13.292877,99.968582,46.421825,61,66,77,68.0,10,49.431731,-0.084519,0.000000,0
479,23.960000,26.918652,-98.160404,0.317229,13.802663,0.008534,0.006361,0.387262,0.012953,-0.004546,0.598563,0.006859,-0.000263,0.294841,0.955522,1,13.066325,99.946236,46.685608,61,66,78,68.33333333333333,10,49.436699,-0.082545,0.000000,0
480,24.010000,27.485864,-97.767331,0.317329,13.807324,-0.001232,0.004606,0.368247,0.013071,-0.004501,0.617299,0.006910,-0.000159,0.303779,0.952717,1,12.809855,99.970505,46.581976,19,22,31,24.0,10,49.433205,-0.078751,0.000000,0
481,24.060000,28.045936,-97.363513,0.317286,13.811781,-0.012884,0.003579,0.356470,0.012443,-0.004547,0.635317,0.006620,-0.000216,0.312350,0.949944,1,12.706552,99.973671,46.134379,19,21,30,23.333333333333332,10,49.433987,-0.076664,0.000000,0
482,24.110000,28.599346,-96.949313,0.317063,13.827552,-0.013918,0.002225,0.359107,0.011605,-0.004684,0.653172,0.006247,-0.000357,0.320818,0.947120,1,10.399399,99.958519,45.772716,19,21,30,23.333333333333332,10,49.432710,-0.076778,0.000000,0
483,24.160000,29.144737,-96.525893,0.317102,13.801043,-0.008373,0.008540,0.365109,0.010903,-0.004556,0.671176,0.005897,-0.000356,0.329330,0.944196,1,12.523290,99.611214,45.455090,18,21,29,22.666666666666668,10,49.435499,-0.078955,0.000000,0
484,24.210000,29.682753,-96.092582,0.317018,13.832017,0.007605,0.001150,0.374989,0.010803,-0.004539,0.689696,0.005851,-0.000310,0.338060,0.941106,1,12.522635,99.995041,45.446158,58,61,70,63.0,10,49.431824,-0.079711,0.000000,0
485,24.260000,30.213474,-95.648848,0.316800,13.836965,0.016937,0.001916,0.372271,0.011422,-0.004692,0.708310,0.006170,-0.000220,0.346804,0.937917,1,1.142138,99.995384,45.415452,60,64,73,65.66666666666667,10,49.434676,-0.079154,0.000000,0
486,24.310000,30.735180,-95.195786,0.316961,13.808775,0.009499,0.008818,0.362002,0.011999,-0.004593,0.726561,0.006424,-0.000015,0.355348,0.934712,1,12.369214,99.999359,45.367899,61,65,75,67.0,10,49.435973,-0.077796,0.000000,0
487,24.360000,31.247939,-94.733708,0.317287,13.806437,-0.000927,0.007297,0.358517,0.012023,-0.004396,0.744496,0.006399,0.000139,0.363715,0.931488,1,12.362990,99.811974,45.413567,57,61,71,63.0,10,49.433811,-0.077076,0.000000,0
488,24.410000,31.752762,-94.262103,0.317337,13.828830,-0.001909,0.000968,0.362386,0.011775,-0.004424,0.762436,0.006288,0.000137,0.372056,0.928189,1,12.411535,99.875542,45.237321,56,59,68,61.0,10,49.431076,-0.077229,0.000000,0
489,24.460000,32.249297,-93.781308,0.317268,13.810776,-0.001791,0.005656,0.361010,0.011577,-0.004511,0.780458,0.006211,0.000116,0.380405,0.924799,1,12.522382,99.921852,45.160469,64,71,80,71.66666666666667,10,49.437343,-0.078009,0.000000,0
490,24.510000,32.736289,-93.292294,0.317385,13.803256,-0.002578,0.006085,0.361607,0.011354,-0.004394,0.798483,0.006085,0.000182,0.388724,0.921334,1,12.589690,99.844559,44.998161,60,66,76,67.33333333333333,10,49.434046,-0.077791,0.000000,0
491,24.560000,33.214953,-92.794021,0.317194,13.832841,0.002175,-0.000810,0.358499,0.011241,-0.004501,0.816450,0.006052,0.000166,0.396985,0.917805,1,12.325239,99.571136,44.804915,61,65,74,66.66666666666667,10,49.432278,-0.076007,0.000000,0
492,24.610000,33.685206,-92.286645,0.316877,13.832376,-0.000248,0.001674,0.342970,0.011249,-0.004717,0.833903,0.006098,0.000121,0.404979,0.914305,1,12.047866,99.325569,44.767210,30,33,29,30.666666666666668,10,49.438015,-0.073159,0.000000,0
493,24.660000,34.146136,-91.771783,0.316898,13.813502,-0.008425,0.007228,0.339768,0.010850,-0.004654,0.850850,0.005902,0.000119,0.412712,0.910842,1,13.283659,99.633606,44.457293,29,33,29,30.333333333333332,10,49.435402,-0.073171,0.000000,0
494,24.710000,34.598240,-91.249258,0.316965,13.830365,-0.000085,0.003437,0.346001,0.010450,-0.004553,0.867942,0.005698,0.000132,0.420481,0.907284,1,13.771377,99.769447,44.239905,26,29,27,27.333333333333332,10,49.430981,-0.074184,0.000000,0
495,24.760000,35.042143,-90.718448,0.316847,13.842886,0.009470,0.001762,0.356954,0.010605,-0.004648,0.885491,0.005787,0.000172,0.428426,0.903559,1,14.187790,99.950500,43.990707,31,35,29,31.666666666666668,10,49.434113,-0.076164,0.000000,0
496,24.810000,35.476298,-90.180414,0.316992,13.812343,0.011202,0.008964,0.356168,0.011052,-0.004562,0.903286,0.005968,0.000360,0.436448,0.899710,1,14.474391,99.962532,43.899102,23,24,25,24.0,10,49.437309,-0.076901,0.000000,0
497,24.860000,35.899983,-89.635449,0.317341,13.806735,0.005423,0.007756,0.354677,0.011350,-0.004322,0.921021,0.006044,0.000586,0.444408,0.895804,1,14.911991,99.996834,43.621339,31,33,31,31.666666666666668,10,49.434018,-0.076143,0.000000,0
498,24.910000,36.314549,-89.082171,0.317275,13.837138,0.003804,-0.000165,0.348989,0.011479,-0.004423,0.938610,0.006119,0.000623,0.452269,0.891860,1,15.580920,99.836487,43.469513,36,40,36,37.333333333333336,10,49.433240,-0.073961,0.000000,0
499,24.960000,36.719417,-88.521592,0.317178,13.819782,-0.004318,0.004214,0.339697,0.011332,-0.004539,0.955711,0.006075,0.000590,0.459879,0.887961,1,16.106384,99.859505,43.220726,18,27,70,38.333333333333336,10,49.436760,-0.073163,0.000000,0
500,25.010000,37.114262,-87.954696,0.317219,13.812640,-0.009411,0.005818,0.341453,0.010823,-0.004494,0.972709,0.005834,0.000543,0.467409,0.884022,1,16.469513,99.986542,43.016848,49,68,143,86.66666666666667,10,49.435142,-0.073563,0.000000,0
501,25.060000,37.499645,-87.380899,0.317105,13.836480,0.002102,0.000793,0.349189,0.010474,-0.004527,0.989958,0.005684,0.000496,0.475016,0.879959,1,17.425762,99.980362,42.822354,36,40,33,36.333333333333336,10,49.432400,-0.074709,0.000000,0
502,25.110000,37.875620,-86.799949,0.316866,13.841941,0.007603,0.001152,0.351167,0.010671,-0.004679,1.007441,0.005802,0.000526,0.482690,0.875772,1,17.317759,99.995537,42.701331,23,25,23,23.666666666666668,10,49.434444,-0.074607,0.000000,0
503,25.160000,38.241073,-86.212860,0.316880,13.821389,0.003722,0.006940,0.338727,0.010902,-0.004649,1.024594,0.005890,0.000646,0.490183,0.871599,1,7.971697,99.992561,42.528519,24,27,26,25.666666666666668,10,49.436357,-0.072751,0.000000,0
